"","X","ExperimentName","Group","Gender","List","SubTrial","StimulDS1.CRESP","StimulDS1.RESP","StimulDS1.RT","Subject","Age","condition","accuracy","correct_RT","correct_RT_2.5sd"
"11",11,"Digit Symbol - Kopie",1,"female","Trial:2",1,"m","m",1837,"10 "," 26","right",1,1837,1837
"12",12,"Digit Symbol - Kopie",1,"female","Trial:2",2,"z","z",1175,"10 "," 26","wrong",1,1175,1175
"13",13,"Digit Symbol - Kopie",1,"female","Trial:2",3,"z","z",1308,"10 "," 26","wrong",1,1308,1308
"14",14,"Digit Symbol - Kopie",1,"female","Trial:2",4,"m","m",1051,"10 "," 26","right",1,1051,1051
"15",15,"Digit Symbol - Kopie",1,"female","Trial:2",5,"m","z",956,"10 "," 26","right",0,NA,NA
"16",16,"Digit Symbol - Kopie",1,"female","Trial:2",6,"z","z",1689,"10 "," 26","wrong",1,1689,1689
"17",17,"Digit Symbol - Kopie",1,"female","Trial:2",7,"m","m",993,"10 "," 26","right",1,993,993
"18",18,"Digit Symbol - Kopie",1,"female","Trial:2",8,"m","m",901,"10 "," 26","right",1,901,901
"19",19,"Digit Symbol - Kopie",1,"female","Trial:2",9,"m","m",1340,"10 "," 26","right",1,1340,1340
"20",20,"Digit Symbol - Kopie",1,"female","Trial:2",10,"m","m",1186,"10 "," 26","right",1,1186,1186
"21",21,"Digit Symbol - Kopie",1,"female","Trial:2",11,"z","z",1062,"10 "," 26","wrong",1,1062,1062
"22",22,"Digit Symbol - Kopie",1,"female","Trial:2",12,"m","m",1007,"10 "," 26","right",1,1007,1007
"23",23,"Digit Symbol - Kopie",1,"female","Trial:2",13,"z","z",1394,"10 "," 26","wrong",1,1394,1394
"24",24,"Digit Symbol - Kopie",1,"female","Trial:2",14,"z","z",1270,"10 "," 26","wrong",1,1270,1270
"25",25,"Digit Symbol - Kopie",1,"female","Trial:2",15,"z","z",1143,"10 "," 26","wrong",1,1143,1143
"26",26,"Digit Symbol - Kopie",1,"female","Trial:2",16,"z","z",1013,"10 "," 26","wrong",1,1013,1013
"27",27,"Digit Symbol - Kopie",1,"female","Trial:2",17,"z","z",976,"10 "," 26","wrong",1,976,976
"28",28,"Digit Symbol - Kopie",1,"female","Trial:2",18,"z","z",844,"10 "," 26","wrong",1,844,844
"29",29,"Digit Symbol - Kopie",1,"female","Trial:2",19,"m","m",1302,"10 "," 26","right",1,1302,1302
"30",30,"Digit Symbol - Kopie",1,"female","Trial:2",20,"z","z",973,"10 "," 26","wrong",1,973,973
"31",31,"Digit Symbol - Kopie",1,"female","Trial:2",21,"z","z",970,"10 "," 26","wrong",1,970,970
"32",32,"Digit Symbol - Kopie",1,"female","Trial:2",22,"m","m",846,"10 "," 26","right",1,846,846
"33",33,"Digit Symbol - Kopie",1,"female","Trial:2",23,"m","m",952,"10 "," 26","right",1,952,952
"34",34,"Digit Symbol - Kopie",1,"female","Trial:2",24,"m","m",933,"10 "," 26","right",1,933,933
"35",35,"Digit Symbol - Kopie",1,"female","Trial:2",25,"z","z",794,"10 "," 26","wrong",1,794,794
"36",36,"Digit Symbol - Kopie",1,"female","Trial:2",26,"z","z",1142,"10 "," 26","wrong",1,1142,1142
"37",37,"Digit Symbol - Kopie",1,"female","Trial:2",27,"z","z",1035,"10 "," 26","wrong",1,1035,1035
"38",38,"Digit Symbol - Kopie",1,"female","Trial:2",28,"m","m",1285,"10 "," 26","right",1,1285,1285
"39",39,"Digit Symbol - Kopie",1,"female","Trial:2",29,"m","z",925,"10 "," 26","wrong",0,NA,NA
"40",40,"Digit Symbol - Kopie",1,"female","Trial:2",30,"z","z",956,"10 "," 26","wrong",1,956,956
"41",41,"Digit Symbol - Kopie",1,"female","Trial:2",31,"m","m",1009,"10 "," 26","right",1,1009,1009
"42",42,"Digit Symbol - Kopie",1,"female","Trial:2",32,"m","m",948,"10 "," 26","right",1,948,948
"43",43,"Digit Symbol - Kopie",1,"female","Trial:2",33,"m","m",897,"10 "," 26","right",1,897,897
"44",44,"Digit Symbol - Kopie",1,"female","Trial:2",34,"z","z",832,"10 "," 26","wrong",1,832,832
"45",45,"Digit Symbol - Kopie",1,"female","Trial:2",35,"z","z",770,"10 "," 26","wrong",1,770,770
"46",46,"Digit Symbol - Kopie",1,"female","Trial:2",36,"z","z",894,"10 "," 26","wrong",1,894,894
"47",47,"Digit Symbol - Kopie",1,"female","Trial:2",37,"m","z",910,"10 "," 26","right",0,NA,NA
"48",48,"Digit Symbol - Kopie",1,"female","Trial:2",38,"z","z",917,"10 "," 26","wrong",1,917,917
"49",49,"Digit Symbol - Kopie",1,"female","Trial:2",39,"m","m",1035,"10 "," 26","right",1,1035,1035
"50",50,"Digit Symbol - Kopie",1,"female","Trial:2",40,"m","m",941,"10 "," 26","right",1,941,941
"51",51,"Digit Symbol - Kopie",1,"female","Trial:2",41,"z","z",1187,"10 "," 26","wrong",1,1187,1187
"52",52,"Digit Symbol - Kopie",1,"female","Trial:2",42,"z","m",911,"10 "," 26","wrong",0,NA,NA
"53",53,"Digit Symbol - Kopie",1,"female","Trial:2",43,"m","m",1206,"10 "," 26","right",1,1206,1206
"54",54,"Digit Symbol - Kopie",1,"female","Trial:2",44,"m","m",985,"10 "," 26","right",1,985,985
"55",55,"Digit Symbol - Kopie",1,"female","Trial:2",45,"z","z",757,"10 "," 26","wrong",1,757,757
"56",56,"Digit Symbol - Kopie",1,"female","Trial:2",46,"m","m",1050,"10 "," 26","right",1,1050,1050
"57",57,"Digit Symbol - Kopie",1,"female","Trial:2",47,"m","m",1107,"10 "," 26","right",1,1107,1107
"58",58,"Digit Symbol - Kopie",1,"female","Trial:2",48,"z","z",858,"10 "," 26","wrong",1,858,858
"59",59,"Digit Symbol - Kopie",1,"female","Trial:2",49,"m","m",1051,"10 "," 26","right",1,1051,1051
"60",60,"Digit Symbol - Kopie",1,"female","Trial:2",50,"m","m",837,"10 "," 26","right",1,837,837
"61",61,"Digit Symbol - Kopie",1,"female","Trial:2",51,"z","z",1510,"10 "," 26","wrong",1,1510,1510
"62",62,"Digit Symbol - Kopie",1,"female","Trial:2",52,"z","z",782,"10 "," 26","wrong",1,782,782
"63",63,"Digit Symbol - Kopie",1,"female","Trial:2",53,"z","z",873,"10 "," 26","wrong",1,873,873
"64",64,"Digit Symbol - Kopie",1,"female","Trial:2",54,"z","z",914,"10 "," 26","wrong",1,914,914
"65",65,"Digit Symbol - Kopie",1,"female","Trial:2",55,"m","m",1112,"10 "," 26","right",1,1112,1112
"66",66,"Digit Symbol - Kopie",1,"female","Trial:2",56,"z","z",983,"10 "," 26","wrong",1,983,983
"67",67,"Digit Symbol - Kopie",1,"female","Trial:2",57,"z","z",915,"10 "," 26","wrong",1,915,915
"68",68,"Digit Symbol - Kopie",1,"female","Trial:2",58,"m","m",882,"10 "," 26","right",1,882,882
"69",69,"Digit Symbol - Kopie",1,"female","Trial:2",59,"m","m",905,"10 "," 26","right",1,905,905
"70",70,"Digit Symbol - Kopie",1,"female","Trial:2",60,"m","m",1008,"10 "," 26","right",1,1008,1008
"71",71,"Digit Symbol - Kopie",1,"female","Trial:2",61,"m","m",956,"10 "," 26","right",1,956,956
"72",72,"Digit Symbol - Kopie",1,"female","Trial:2",62,"z","z",785,"10 "," 26","wrong",1,785,785
"73",73,"Digit Symbol - Kopie",1,"female","Trial:2",63,"m","m",780,"10 "," 26","right",1,780,780
"74",74,"Digit Symbol - Kopie",1,"female","Trial:2",64,"z","z",880,"10 "," 26","wrong",1,880,880
"75",75,"Digit Symbol - Kopie",1,"female","Trial:2",65,"m","m",817,"10 "," 26","right",1,817,817
"76",76,"Digit Symbol - Kopie",1,"female","Trial:2",66,"m","m",787,"10 "," 26","right",1,787,787
"77",77,"Digit Symbol - Kopie",1,"female","Trial:2",67,"m","m",799,"10 "," 26","right",1,799,799
"78",78,"Digit Symbol - Kopie",1,"female","Trial:2",68,"z","z",1458,"10 "," 26","wrong",1,1458,1458
"79",79,"Digit Symbol - Kopie",1,"female","Trial:2",69,"z","z",923,"10 "," 26","wrong",1,923,923
"80",80,"Digit Symbol - Kopie",1,"female","Trial:2",70,"z","z",801,"10 "," 26","wrong",1,801,801
"81",81,"Digit Symbol - Kopie",1,"female","Trial:2",71,"z","z",829,"10 "," 26","wrong",1,829,829
"82",82,"Digit Symbol - Kopie",1,"female","Trial:2",72,"m","m",807,"10 "," 26","right",1,807,807
"83",83,"Digit Symbol - Kopie",1,"female","Trial:2",73,"m","m",738,"10 "," 26","right",1,738,738
"84",84,"Digit Symbol - Kopie",1,"female","Trial:2",74,"m","m",1064,"10 "," 26","right",1,1064,1064
"85",85,"Digit Symbol - Kopie",1,"female","Trial:2",75,"z","z",784,"10 "," 26","wrong",1,784,784
"86",86,"Digit Symbol - Kopie",1,"female","Trial:2",76,"z","z",1012,"10 "," 26","wrong",1,1012,1012
"87",87,"Digit Symbol - Kopie",1,"female","Trial:2",77,"m","m",823,"10 "," 26","right",1,823,823
"88",88,"Digit Symbol - Kopie",1,"female","Trial:2",78,"z","m",953,"10 "," 26","wrong",0,NA,NA
"89",89,"Digit Symbol - Kopie",1,"female","Trial:2",79,"m","m",879,"10 "," 26","right",1,879,879
"90",90,"Digit Symbol - Kopie",1,"female","Trial:2",80,"z","z",783,"10 "," 26","wrong",1,783,783
"91",91,"Digit Symbol - Kopie",1,"female","Trial:2",81,"z","z",771,"10 "," 26","wrong",1,771,771
"92",92,"Digit Symbol - Kopie",1,"female","Trial:2",82,"m","m",1127,"10 "," 26","right",1,1127,1127
"93",93,"Digit Symbol - Kopie",1,"female","Trial:2",83,"m","m",1246,"10 "," 26","right",1,1246,1246
"94",94,"Digit Symbol - Kopie",1,"female","Trial:2",84,"z","z",720,"10 "," 26","wrong",1,720,720
"95",95,"Digit Symbol - Kopie",1,"female","Trial:2",85,"z","z",758,"10 "," 26","wrong",1,758,758
"96",96,"Digit Symbol - Kopie",1,"female","Trial:2",86,"m","m",770,"10 "," 26","right",1,770,770
"97",97,"Digit Symbol - Kopie",1,"female","Trial:2",87,"m","m",918,"10 "," 26","right",1,918,918
"98",98,"Digit Symbol - Kopie",1,"female","Trial:2",88,"z","z",853,"10 "," 26","wrong",1,853,853
"99",99,"Digit Symbol - Kopie",1,"female","Trial:2",89,"m","m",958,"10 "," 26","right",1,958,958
"100",100,"Digit Symbol - Kopie",1,"female","Trial:2",90,"m","m",1067,"10 "," 26","right",1,1067,1067
"111",111,"Digit Symbol - Kopie",1,"female","Trial:2",1,"m","m",1578,"11 "," 26","right",1,1578,1578
"112",112,"Digit Symbol - Kopie",1,"female","Trial:2",2,"m","m",1783,"11 "," 26","right",1,1783,1783
"113",113,"Digit Symbol - Kopie",1,"female","Trial:2",3,"z","z",1747,"11 "," 26","wrong",1,1747,1747
"114",114,"Digit Symbol - Kopie",1,"female","Trial:2",4,"m","m",1432,"11 "," 26","right",1,1432,1432
"115",115,"Digit Symbol - Kopie",1,"female","Trial:2",5,"m","m",970,"11 "," 26","right",1,970,970
"116",116,"Digit Symbol - Kopie",1,"female","Trial:2",6,"z","z",1303,"11 "," 26","wrong",1,1303,1303
"117",117,"Digit Symbol - Kopie",1,"female","Trial:2",7,"m","z",1582,"11 "," 26","right",0,NA,NA
"118",118,"Digit Symbol - Kopie",1,"female","Trial:2",8,"z","z",1530,"11 "," 26","wrong",1,1530,1530
"119",119,"Digit Symbol - Kopie",1,"female","Trial:2",9,"m","m",976,"11 "," 26","right",1,976,976
"120",120,"Digit Symbol - Kopie",1,"female","Trial:2",10,"m","m",804,"11 "," 26","right",1,804,804
"121",121,"Digit Symbol - Kopie",1,"female","Trial:2",11,"z","z",999,"11 "," 26","wrong",1,999,999
"122",122,"Digit Symbol - Kopie",1,"female","Trial:2",12,"m","m",2426,"11 "," 26","right",1,2426,2426
"123",123,"Digit Symbol - Kopie",1,"female","Trial:2",13,"z","z",1357,"11 "," 26","wrong",1,1357,1357
"124",124,"Digit Symbol - Kopie",1,"female","Trial:2",14,"m","m",939,"11 "," 26","right",1,939,939
"125",125,"Digit Symbol - Kopie",1,"female","Trial:2",15,"z","z",1056,"11 "," 26","wrong",1,1056,1056
"126",126,"Digit Symbol - Kopie",1,"female","Trial:2",16,"m","m",642,"11 "," 26","right",1,642,642
"127",127,"Digit Symbol - Kopie",1,"female","Trial:2",17,"m","m",835,"11 "," 26","right",1,835,835
"128",128,"Digit Symbol - Kopie",1,"female","Trial:2",18,"m","m",933,"11 "," 26","right",1,933,933
"129",129,"Digit Symbol - Kopie",1,"female","Trial:2",19,"z","z",1811,"11 "," 26","wrong",1,1811,1811
"130",130,"Digit Symbol - Kopie",1,"female","Trial:2",20,"z","z",854,"11 "," 26","wrong",1,854,854
"131",131,"Digit Symbol - Kopie",1,"female","Trial:2",21,"m","m",775,"11 "," 26","right",1,775,775
"132",132,"Digit Symbol - Kopie",1,"female","Trial:2",22,"z","z",1084,"11 "," 26","wrong",1,1084,1084
"133",133,"Digit Symbol - Kopie",1,"female","Trial:2",23,"m","m",924,"11 "," 26","right",1,924,924
"134",134,"Digit Symbol - Kopie",1,"female","Trial:2",24,"z","z",658,"11 "," 26","wrong",1,658,658
"135",135,"Digit Symbol - Kopie",1,"female","Trial:2",25,"m","m",763,"11 "," 26","right",1,763,763
"136",136,"Digit Symbol - Kopie",1,"female","Trial:2",26,"m","m",1344,"11 "," 26","right",1,1344,1344
"137",137,"Digit Symbol - Kopie",1,"female","Trial:2",27,"m","m",542,"11 "," 26","right",1,542,542
"138",138,"Digit Symbol - Kopie",1,"female","Trial:2",28,"z","z",1092,"11 "," 26","wrong",1,1092,1092
"139",139,"Digit Symbol - Kopie",1,"female","Trial:2",29,"m","m",756,"11 "," 26","right",1,756,756
"140",140,"Digit Symbol - Kopie",1,"female","Trial:2",30,"m","m",833,"11 "," 26","right",1,833,833
"141",141,"Digit Symbol - Kopie",1,"female","Trial:2",31,"m","m",785,"11 "," 26","right",1,785,785
"142",142,"Digit Symbol - Kopie",1,"female","Trial:2",32,"m","m",1173,"11 "," 26","right",1,1173,1173
"143",143,"Digit Symbol - Kopie",1,"female","Trial:2",33,"m","m",794,"11 "," 26","right",1,794,794
"144",144,"Digit Symbol - Kopie",1,"female","Trial:2",34,"z","z",845,"11 "," 26","wrong",1,845,845
"145",145,"Digit Symbol - Kopie",1,"female","Trial:2",35,"z","z",1255,"11 "," 26","wrong",1,1255,1255
"146",146,"Digit Symbol - Kopie",1,"female","Trial:2",36,"m","m",680,"11 "," 26","right",1,680,680
"147",147,"Digit Symbol - Kopie",1,"female","Trial:2",37,"z","z",1560,"11 "," 26","wrong",1,1560,1560
"148",148,"Digit Symbol - Kopie",1,"female","Trial:2",38,"z","m",1221,"11 "," 26","wrong",0,NA,NA
"149",149,"Digit Symbol - Kopie",1,"female","Trial:2",39,"z","z",1456,"11 "," 26","wrong",1,1456,1456
"150",150,"Digit Symbol - Kopie",1,"female","Trial:2",40,"z","z",2409,"11 "," 26","wrong",1,2409,2409
"151",151,"Digit Symbol - Kopie",1,"female","Trial:2",41,"z","z",1405,"11 "," 26","wrong",1,1405,1405
"152",152,"Digit Symbol - Kopie",1,"female","Trial:2",42,"z","z",1320,"11 "," 26","wrong",1,1320,1320
"153",153,"Digit Symbol - Kopie",1,"female","Trial:2",43,"m","m",663,"11 "," 26","right",1,663,663
"154",154,"Digit Symbol - Kopie",1,"female","Trial:2",44,"z","z",840,"11 "," 26","wrong",1,840,840
"155",155,"Digit Symbol - Kopie",1,"female","Trial:2",45,"z","z",1041,"11 "," 26","wrong",1,1041,1041
"156",156,"Digit Symbol - Kopie",1,"female","Trial:2",46,"z","z",1307,"11 "," 26","wrong",1,1307,1307
"157",157,"Digit Symbol - Kopie",1,"female","Trial:2",47,"z","z",827,"11 "," 26","wrong",1,827,827
"158",158,"Digit Symbol - Kopie",1,"female","Trial:2",48,"z","z",893,"11 "," 26","wrong",1,893,893
"159",159,"Digit Symbol - Kopie",1,"female","Trial:2",49,"m","m",861,"11 "," 26","right",1,861,861
"160",160,"Digit Symbol - Kopie",1,"female","Trial:2",50,"m","m",766,"11 "," 26","right",1,766,766
"161",161,"Digit Symbol - Kopie",1,"female","Trial:2",51,"z","z",1034,"11 "," 26","wrong",1,1034,1034
"162",162,"Digit Symbol - Kopie",1,"female","Trial:2",52,"m","m",900,"11 "," 26","right",1,900,900
"163",163,"Digit Symbol - Kopie",1,"female","Trial:2",53,"m","m",971,"11 "," 26","right",1,971,971
"164",164,"Digit Symbol - Kopie",1,"female","Trial:2",54,"m","m",584,"11 "," 26","right",1,584,584
"165",165,"Digit Symbol - Kopie",1,"female","Trial:2",55,"z","z",747,"11 "," 26","wrong",1,747,747
"166",166,"Digit Symbol - Kopie",1,"female","Trial:2",56,"z","z",1536,"11 "," 26","wrong",1,1536,1536
"167",167,"Digit Symbol - Kopie",1,"female","Trial:2",57,"m","m",870,"11 "," 26","right",1,870,870
"168",168,"Digit Symbol - Kopie",1,"female","Trial:2",58,"z","z",1119,"11 "," 26","wrong",1,1119,1119
"169",169,"Digit Symbol - Kopie",1,"female","Trial:2",59,"m","m",773,"11 "," 26","wrong",1,773,773
"170",170,"Digit Symbol - Kopie",1,"female","Trial:2",60,"z","z",1634,"11 "," 26","wrong",1,1634,1634
"171",171,"Digit Symbol - Kopie",1,"female","Trial:2",61,"m","m",884,"11 "," 26","right",1,884,884
"172",172,"Digit Symbol - Kopie",1,"female","Trial:2",62,"z","z",1156,"11 "," 26","wrong",1,1156,1156
"173",173,"Digit Symbol - Kopie",1,"female","Trial:2",63,"z","z",784,"11 "," 26","wrong",1,784,784
"174",174,"Digit Symbol - Kopie",1,"female","Trial:2",64,"m","m",667,"11 "," 26","right",1,667,667
"175",175,"Digit Symbol - Kopie",1,"female","Trial:2",65,"m","m",788,"11 "," 26","right",1,788,788
"176",176,"Digit Symbol - Kopie",1,"female","Trial:2",66,"z","m",976,"11 "," 26","wrong",0,NA,NA
"177",177,"Digit Symbol - Kopie",1,"female","Trial:2",67,"z","z",2516,"11 "," 26","wrong",1,2516,NA
"178",178,"Digit Symbol - Kopie",1,"female","Trial:2",68,"m","m",819,"11 "," 26","right",1,819,819
"179",179,"Digit Symbol - Kopie",1,"female","Trial:2",69,"m","m",1085,"11 "," 26","right",1,1085,1085
"180",180,"Digit Symbol - Kopie",1,"female","Trial:2",70,"z","m",709,"11 "," 26","wrong",0,NA,NA
"181",181,"Digit Symbol - Kopie",1,"female","Trial:2",71,"z","m",820,"11 "," 26","wrong",0,NA,NA
"182",182,"Digit Symbol - Kopie",1,"female","Trial:2",72,"z","m",815,"11 "," 26","wrong",0,NA,NA
"183",183,"Digit Symbol - Kopie",1,"female","Trial:2",73,"z","z",1481,"11 "," 26","wrong",1,1481,1481
"184",184,"Digit Symbol - Kopie",1,"female","Trial:2",74,"m","m",1185,"11 "," 26","right",1,1185,1185
"185",185,"Digit Symbol - Kopie",1,"female","Trial:2",75,"m","m",797,"11 "," 26","right",1,797,797
"186",186,"Digit Symbol - Kopie",1,"female","Trial:2",76,"m","m",1072,"11 "," 26","right",1,1072,1072
"187",187,"Digit Symbol - Kopie",1,"female","Trial:2",77,"z","z",1953,"11 "," 26","wrong",1,1953,1953
"188",188,"Digit Symbol - Kopie",1,"female","Trial:2",78,"m","m",2486,"11 "," 26","right",1,2486,NA
"189",189,"Digit Symbol - Kopie",1,"female","Trial:2",79,"m","m",814,"11 "," 26","right",1,814,814
"190",190,"Digit Symbol - Kopie",1,"female","Trial:2",80,"m","m",761,"11 "," 26","right",1,761,761
"191",191,"Digit Symbol - Kopie",1,"female","Trial:2",81,"z","z",1086,"11 "," 26","wrong",1,1086,1086
"192",192,"Digit Symbol - Kopie",1,"female","Trial:2",82,"m","m",1030,"11 "," 26","right",1,1030,1030
"193",193,"Digit Symbol - Kopie",1,"female","Trial:2",83,"z","z",1248,"11 "," 26","wrong",1,1248,1248
"194",194,"Digit Symbol - Kopie",1,"female","Trial:2",84,"m","m",713,"11 "," 26","right",1,713,713
"195",195,"Digit Symbol - Kopie",1,"female","Trial:2",85,"z","z",808,"11 "," 26","wrong",1,808,808
"196",196,"Digit Symbol - Kopie",1,"female","Trial:2",86,"z","z",1411,"11 "," 26","wrong",1,1411,1411
"197",197,"Digit Symbol - Kopie",1,"female","Trial:2",87,"m","m",679,"11 "," 26","right",1,679,679
"198",198,"Digit Symbol - Kopie",1,"female","Trial:2",88,"m","m",1007,"11 "," 26","right",1,1007,1007
"199",199,"Digit Symbol - Kopie",1,"female","Trial:2",89,"z","z",570,"11 "," 26","wrong",1,570,570
"200",200,"Digit Symbol - Kopie",1,"female","Trial:2",90,"z","z",935,"11 "," 26","wrong",1,935,935
"211",211,"Digit Symbol - Kopie",1,"female","Trial:2",1,"z","m",1774,"12 "," 27","wrong",0,NA,NA
"212",212,"Digit Symbol - Kopie",1,"female","Trial:2",2,"m","m",2243,"12 "," 27","right",1,2243,2243
"213",213,"Digit Symbol - Kopie",1,"female","Trial:2",3,"m","m",1581,"12 "," 27","right",1,1581,1581
"214",214,"Digit Symbol - Kopie",1,"female","Trial:2",4,"z","z",785,"12 "," 27","wrong",1,785,785
"215",215,"Digit Symbol - Kopie",1,"female","Trial:2",5,"z","z",837,"12 "," 27","wrong",1,837,837
"216",216,"Digit Symbol - Kopie",1,"female","Trial:2",6,"z","z",679,"12 "," 27","wrong",1,679,679
"217",217,"Digit Symbol - Kopie",1,"female","Trial:2",7,"z","m",743,"12 "," 27","wrong",0,NA,NA
"218",218,"Digit Symbol - Kopie",1,"female","Trial:2",8,"z","m",1485,"12 "," 27","wrong",0,NA,NA
"219",219,"Digit Symbol - Kopie",1,"female","Trial:2",9,"z","z",1517,"12 "," 27","wrong",1,1517,1517
"220",220,"Digit Symbol - Kopie",1,"female","Trial:2",10,"z","z",763,"12 "," 27","wrong",1,763,763
"221",221,"Digit Symbol - Kopie",1,"female","Trial:2",11,"m","m",872,"12 "," 27","right",1,872,872
"222",222,"Digit Symbol - Kopie",1,"female","Trial:2",12,"m","m",1257,"12 "," 27","right",1,1257,1257
"223",223,"Digit Symbol - Kopie",1,"female","Trial:2",13,"m","m",898,"12 "," 27","right",1,898,898
"224",224,"Digit Symbol - Kopie",1,"female","Trial:2",14,"m","m",801,"12 "," 27","right",1,801,801
"225",225,"Digit Symbol - Kopie",1,"female","Trial:2",15,"m","m",724,"12 "," 27","right",1,724,724
"226",226,"Digit Symbol - Kopie",1,"female","Trial:2",16,"m","m",682,"12 "," 27","right",1,682,682
"227",227,"Digit Symbol - Kopie",1,"female","Trial:2",17,"m","m",770,"12 "," 27","right",1,770,770
"228",228,"Digit Symbol - Kopie",1,"female","Trial:2",18,"z","z",958,"12 "," 27","wrong",1,958,958
"229",229,"Digit Symbol - Kopie",1,"female","Trial:2",19,"z","z",1036,"12 "," 27","wrong",1,1036,1036
"230",230,"Digit Symbol - Kopie",1,"female","Trial:2",20,"z","z",589,"12 "," 27","wrong",1,589,589
"231",231,"Digit Symbol - Kopie",1,"female","Trial:2",21,"z","z",753,"12 "," 27","wrong",1,753,753
"232",232,"Digit Symbol - Kopie",1,"female","Trial:2",22,"z","z",950,"12 "," 27","wrong",1,950,950
"233",233,"Digit Symbol - Kopie",1,"female","Trial:2",23,"z","z",771,"12 "," 27","wrong",1,771,771
"234",234,"Digit Symbol - Kopie",1,"female","Trial:2",24,"m","m",752,"12 "," 27","right",1,752,752
"235",235,"Digit Symbol - Kopie",1,"female","Trial:2",25,"z","z",829,"12 "," 27","wrong",1,829,829
"236",236,"Digit Symbol - Kopie",1,"female","Trial:2",26,"m","z",727,"12 "," 27","right",0,NA,NA
"237",237,"Digit Symbol - Kopie",1,"female","Trial:2",27,"m","m",1309,"12 "," 27","right",1,1309,1309
"238",238,"Digit Symbol - Kopie",1,"female","Trial:2",28,"m","m",965,"12 "," 27","right",1,965,965
"239",239,"Digit Symbol - Kopie",1,"female","Trial:2",29,"m","m",785,"12 "," 27","right",1,785,785
"240",240,"Digit Symbol - Kopie",1,"female","Trial:2",30,"m","m",773,"12 "," 27","right",1,773,773
"241",241,"Digit Symbol - Kopie",1,"female","Trial:2",31,"m","z",689,"12 "," 27","wrong",0,NA,NA
"242",242,"Digit Symbol - Kopie",1,"female","Trial:2",32,"m","m",913,"12 "," 27","right",1,913,913
"243",243,"Digit Symbol - Kopie",1,"female","Trial:2",33,"z","m",880,"12 "," 27","wrong",0,NA,NA
"244",244,"Digit Symbol - Kopie",1,"female","Trial:2",34,"m","m",832,"12 "," 27","right",1,832,832
"245",245,"Digit Symbol - Kopie",1,"female","Trial:2",35,"z","z",1466,"12 "," 27","wrong",1,1466,1466
"246",246,"Digit Symbol - Kopie",1,"female","Trial:2",36,"m","m",787,"12 "," 27","right",1,787,787
"247",247,"Digit Symbol - Kopie",1,"female","Trial:2",37,"z","z",958,"12 "," 27","wrong",1,958,958
"248",248,"Digit Symbol - Kopie",1,"female","Trial:2",38,"z","z",675,"12 "," 27","wrong",1,675,675
"249",249,"Digit Symbol - Kopie",1,"female","Trial:2",39,"z","z",1068,"12 "," 27","wrong",1,1068,1068
"250",250,"Digit Symbol - Kopie",1,"female","Trial:2",40,"z","z",756,"12 "," 27","wrong",1,756,756
"251",251,"Digit Symbol - Kopie",1,"female","Trial:2",41,"m","m",769,"12 "," 27","right",1,769,769
"252",252,"Digit Symbol - Kopie",1,"female","Trial:2",42,"z","z",654,"12 "," 27","wrong",1,654,654
"253",253,"Digit Symbol - Kopie",1,"female","Trial:2",43,"m","m",855,"12 "," 27","right",1,855,855
"254",254,"Digit Symbol - Kopie",1,"female","Trial:2",44,"z","z",816,"12 "," 27","wrong",1,816,816
"255",255,"Digit Symbol - Kopie",1,"female","Trial:2",45,"m","m",930,"12 "," 27","right",1,930,930
"256",256,"Digit Symbol - Kopie",1,"female","Trial:2",46,"z","z",1392,"12 "," 27","wrong",1,1392,1392
"257",257,"Digit Symbol - Kopie",1,"female","Trial:2",47,"m","m",1108,"12 "," 27","right",1,1108,1108
"258",258,"Digit Symbol - Kopie",1,"female","Trial:2",48,"m","m",1475,"12 "," 27","right",1,1475,1475
"259",259,"Digit Symbol - Kopie",1,"female","Trial:2",49,"m","m",1212,"12 "," 27","right",1,1212,1212
"260",260,"Digit Symbol - Kopie",1,"female","Trial:2",50,"m","m",855,"12 "," 27","right",1,855,855
"261",261,"Digit Symbol - Kopie",1,"female","Trial:2",51,"m","m",592,"12 "," 27","right",1,592,592
"262",262,"Digit Symbol - Kopie",1,"female","Trial:2",52,"z","z",652,"12 "," 27","wrong",1,652,652
"263",263,"Digit Symbol - Kopie",1,"female","Trial:2",53,"m","m",629,"12 "," 27","right",1,629,629
"264",264,"Digit Symbol - Kopie",1,"female","Trial:2",54,"m","m",1015,"12 "," 27","right",1,1015,1015
"265",265,"Digit Symbol - Kopie",1,"female","Trial:2",55,"z","z",809,"12 "," 27","wrong",1,809,809
"266",266,"Digit Symbol - Kopie",1,"female","Trial:2",56,"z","m",1124,"12 "," 27","wrong",0,NA,NA
"267",267,"Digit Symbol - Kopie",1,"female","Trial:2",57,"z","z",1443,"12 "," 27","wrong",1,1443,1443
"268",268,"Digit Symbol - Kopie",1,"female","Trial:2",58,"m","m",821,"12 "," 27","right",1,821,821
"269",269,"Digit Symbol - Kopie",1,"female","Trial:2",59,"z","z",1647,"12 "," 27","wrong",1,1647,1647
"270",270,"Digit Symbol - Kopie",1,"female","Trial:2",60,"z","z",873,"12 "," 27","wrong",1,873,873
"271",271,"Digit Symbol - Kopie",1,"female","Trial:2",61,"z","z",745,"12 "," 27","wrong",1,745,745
"272",272,"Digit Symbol - Kopie",1,"female","Trial:2",62,"m","m",695,"12 "," 27","right",1,695,695
"273",273,"Digit Symbol - Kopie",1,"female","Trial:2",63,"z","z",1062,"12 "," 27","wrong",1,1062,1062
"274",274,"Digit Symbol - Kopie",1,"female","Trial:2",64,"z","z",703,"12 "," 27","wrong",1,703,703
"275",275,"Digit Symbol - Kopie",1,"female","Trial:2",65,"z","z",783,"12 "," 27","wrong",1,783,783
"276",276,"Digit Symbol - Kopie",1,"female","Trial:2",66,"z","z",850,"12 "," 27","wrong",1,850,850
"277",277,"Digit Symbol - Kopie",1,"female","Trial:2",67,"z","z",707,"12 "," 27","wrong",1,707,707
"278",278,"Digit Symbol - Kopie",1,"female","Trial:2",68,"z","z",1114,"12 "," 27","wrong",1,1114,1114
"279",279,"Digit Symbol - Kopie",1,"female","Trial:2",69,"m","z",841,"12 "," 27","right",0,NA,NA
"280",280,"Digit Symbol - Kopie",1,"female","Trial:2",70,"z","z",787,"12 "," 27","wrong",1,787,787
"281",281,"Digit Symbol - Kopie",1,"female","Trial:2",71,"m","m",750,"12 "," 27","right",1,750,750
"282",282,"Digit Symbol - Kopie",1,"female","Trial:2",72,"m","m",835,"12 "," 27","right",1,835,835
"283",283,"Digit Symbol - Kopie",1,"female","Trial:2",73,"z","z",669,"12 "," 27","wrong",1,669,669
"284",284,"Digit Symbol - Kopie",1,"female","Trial:2",74,"z","z",925,"12 "," 27","wrong",1,925,925
"285",285,"Digit Symbol - Kopie",1,"female","Trial:2",75,"m","m",884,"12 "," 27","right",1,884,884
"286",286,"Digit Symbol - Kopie",1,"female","Trial:2",76,"z","z",908,"12 "," 27","wrong",1,908,908
"287",287,"Digit Symbol - Kopie",1,"female","Trial:2",77,"m","m",907,"12 "," 27","right",1,907,907
"288",288,"Digit Symbol - Kopie",1,"female","Trial:2",78,"m","m",1082,"12 "," 27","right",1,1082,1082
"289",289,"Digit Symbol - Kopie",1,"female","Trial:2",79,"z","z",746,"12 "," 27","wrong",1,746,746
"290",290,"Digit Symbol - Kopie",1,"female","Trial:2",80,"m","m",887,"12 "," 27","right",1,887,887
"291",291,"Digit Symbol - Kopie",1,"female","Trial:2",81,"m","m",751,"12 "," 27","right",1,751,751
"292",292,"Digit Symbol - Kopie",1,"female","Trial:2",82,"z","z",668,"12 "," 27","wrong",1,668,668
"293",293,"Digit Symbol - Kopie",1,"female","Trial:2",83,"m","z",668,"12 "," 27","right",0,NA,NA
"294",294,"Digit Symbol - Kopie",1,"female","Trial:2",84,"m","m",565,"12 "," 27","right",1,565,565
"295",295,"Digit Symbol - Kopie",1,"female","Trial:2",85,"z","z",1233,"12 "," 27","wrong",1,1233,1233
"296",296,"Digit Symbol - Kopie",1,"female","Trial:2",86,"m","m",1251,"12 "," 27","right",1,1251,1251
"297",297,"Digit Symbol - Kopie",1,"female","Trial:2",87,"m","m",1116,"12 "," 27","right",1,1116,1116
"298",298,"Digit Symbol - Kopie",1,"female","Trial:2",88,"m","m",859,"12 "," 27","right",1,859,859
"299",299,"Digit Symbol - Kopie",1,"female","Trial:2",89,"m","m",716,"12 "," 27","right",1,716,716
"300",300,"Digit Symbol - Kopie",1,"female","Trial:2",90,"m","m",634,"12 "," 27","right",1,634,634
"311",311,"Digit Symbol - Kopie",1,"female","Trial:2",1,"z","z",2515,"13 "," 24","wrong",1,2515,NA
"312",312,"Digit Symbol - Kopie",1,"female","Trial:2",2,"m","m",1546,"13 "," 24","right",1,1546,1546
"313",313,"Digit Symbol - Kopie",1,"female","Trial:2",3,"z","z",1464,"13 "," 24","wrong",1,1464,1464
"314",314,"Digit Symbol - Kopie",1,"female","Trial:2",4,"z","z",1192,"13 "," 24","wrong",1,1192,1192
"315",315,"Digit Symbol - Kopie",1,"female","Trial:2",5,"m","m",1100,"13 "," 24","right",1,1100,1100
"316",316,"Digit Symbol - Kopie",1,"female","Trial:2",6,"z","z",2123,"13 "," 24","wrong",1,2123,2123
"317",317,"Digit Symbol - Kopie",1,"female","Trial:2",7,"m","m",1034,"13 "," 24","right",1,1034,1034
"318",318,"Digit Symbol - Kopie",1,"female","Trial:2",8,"m","m",628,"13 "," 24","right",1,628,628
"319",319,"Digit Symbol - Kopie",1,"female","Trial:2",9,"m","m",1126,"13 "," 24","right",1,1126,1126
"320",320,"Digit Symbol - Kopie",1,"female","Trial:2",10,"z","z",1029,"13 "," 24","wrong",1,1029,1029
"321",321,"Digit Symbol - Kopie",1,"female","Trial:2",11,"m","m",1247,"13 "," 24","right",1,1247,1247
"322",322,"Digit Symbol - Kopie",1,"female","Trial:2",12,"m","m",1665,"13 "," 24","right",1,1665,1665
"323",323,"Digit Symbol - Kopie",1,"female","Trial:2",13,"z","z",1305,"13 "," 24","wrong",1,1305,1305
"324",324,"Digit Symbol - Kopie",1,"female","Trial:2",14,"m","m",1000,"13 "," 24","right",1,1000,1000
"325",325,"Digit Symbol - Kopie",1,"female","Trial:2",15,"z","z",1028,"13 "," 24","wrong",1,1028,1028
"326",326,"Digit Symbol - Kopie",1,"female","Trial:2",16,"m","m",1414,"13 "," 24","right",1,1414,1414
"327",327,"Digit Symbol - Kopie",1,"female","Trial:2",17,"z","z",2001,"13 "," 24","wrong",1,2001,2001
"328",328,"Digit Symbol - Kopie",1,"female","Trial:2",18,"m","m",940,"13 "," 24","right",1,940,940
"329",329,"Digit Symbol - Kopie",1,"female","Trial:2",19,"m","m",842,"13 "," 24","right",1,842,842
"330",330,"Digit Symbol - Kopie",1,"female","Trial:2",20,"m","m",844,"13 "," 24","right",1,844,844
"331",331,"Digit Symbol - Kopie",1,"female","Trial:2",21,"z","z",757,"13 "," 24","wrong",1,757,757
"332",332,"Digit Symbol - Kopie",1,"female","Trial:2",22,"z","z",1538,"13 "," 24","wrong",1,1538,1538
"333",333,"Digit Symbol - Kopie",1,"female","Trial:2",23,"m","z",1144,"13 "," 24","wrong",0,NA,NA
"334",334,"Digit Symbol - Kopie",1,"female","Trial:2",24,"m","m",1262,"13 "," 24","right",1,1262,1262
"335",335,"Digit Symbol - Kopie",1,"female","Trial:2",25,"m","m",1215,"13 "," 24","right",1,1215,1215
"336",336,"Digit Symbol - Kopie",1,"female","Trial:2",26,"m","m",978,"13 "," 24","right",1,978,978
"337",337,"Digit Symbol - Kopie",1,"female","Trial:2",27,"z","z",1638,"13 "," 24","wrong",1,1638,1638
"338",338,"Digit Symbol - Kopie",1,"female","Trial:2",28,"m","m",856,"13 "," 24","right",1,856,856
"339",339,"Digit Symbol - Kopie",1,"female","Trial:2",29,"m","m",1081,"13 "," 24","right",1,1081,1081
"340",340,"Digit Symbol - Kopie",1,"female","Trial:2",30,"z","z",1049,"13 "," 24","wrong",1,1049,1049
"341",341,"Digit Symbol - Kopie",1,"female","Trial:2",31,"m","m",770,"13 "," 24","right",1,770,770
"342",342,"Digit Symbol - Kopie",1,"female","Trial:2",32,"z","z",855,"13 "," 24","wrong",1,855,855
"343",343,"Digit Symbol - Kopie",1,"female","Trial:2",33,"z","z",1392,"13 "," 24","wrong",1,1392,1392
"344",344,"Digit Symbol - Kopie",1,"female","Trial:2",34,"m","m",1387,"13 "," 24","right",1,1387,1387
"345",345,"Digit Symbol - Kopie",1,"female","Trial:2",35,"m","m",1295,"13 "," 24","right",1,1295,1295
"346",346,"Digit Symbol - Kopie",1,"female","Trial:2",36,"z","z",1134,"13 "," 24","wrong",1,1134,1134
"347",347,"Digit Symbol - Kopie",1,"female","Trial:2",37,"z","z",1532,"13 "," 24","wrong",1,1532,1532
"348",348,"Digit Symbol - Kopie",1,"female","Trial:2",38,"m","m",1002,"13 "," 24","right",1,1002,1002
"349",349,"Digit Symbol - Kopie",1,"female","Trial:2",39,"z","z",917,"13 "," 24","wrong",1,917,917
"350",350,"Digit Symbol - Kopie",1,"female","Trial:2",40,"m","m",956,"13 "," 24","right",1,956,956
"351",351,"Digit Symbol - Kopie",1,"female","Trial:2",41,"z","z",1593,"13 "," 24","wrong",1,1593,1593
"352",352,"Digit Symbol - Kopie",1,"female","Trial:2",42,"m","m",933,"13 "," 24","right",1,933,933
"353",353,"Digit Symbol - Kopie",1,"female","Trial:2",43,"m","m",803,"13 "," 24","right",1,803,803
"354",354,"Digit Symbol - Kopie",1,"female","Trial:2",44,"m","m",966,"13 "," 24","right",1,966,966
"355",355,"Digit Symbol - Kopie",1,"female","Trial:2",45,"z","z",946,"13 "," 24","wrong",1,946,946
"356",356,"Digit Symbol - Kopie",1,"female","Trial:2",46,"m","m",1168,"13 "," 24","right",1,1168,1168
"357",357,"Digit Symbol - Kopie",1,"female","Trial:2",47,"z","z",1205,"13 "," 24","wrong",1,1205,1205
"358",358,"Digit Symbol - Kopie",1,"female","Trial:2",48,"m","m",856,"13 "," 24","right",1,856,856
"359",359,"Digit Symbol - Kopie",1,"female","Trial:2",49,"z","z",1049,"13 "," 24","wrong",1,1049,1049
"360",360,"Digit Symbol - Kopie",1,"female","Trial:2",50,"z","z",1010,"13 "," 24","wrong",1,1010,1010
"361",361,"Digit Symbol - Kopie",1,"female","Trial:2",51,"z","z",965,"13 "," 24","wrong",1,965,965
"362",362,"Digit Symbol - Kopie",1,"female","Trial:2",52,"m","m",922,"13 "," 24","right",1,922,922
"363",363,"Digit Symbol - Kopie",1,"female","Trial:2",53,"z","z",1032,"13 "," 24","wrong",1,1032,1032
"364",364,"Digit Symbol - Kopie",1,"female","Trial:2",54,"z","z",954,"13 "," 24","wrong",1,954,954
"365",365,"Digit Symbol - Kopie",1,"female","Trial:2",55,"m","m",983,"13 "," 24","right",1,983,983
"366",366,"Digit Symbol - Kopie",1,"female","Trial:2",56,"z","z",1075,"13 "," 24","wrong",1,1075,1075
"367",367,"Digit Symbol - Kopie",1,"female","Trial:2",57,"z","z",1827,"13 "," 24","wrong",1,1827,1827
"368",368,"Digit Symbol - Kopie",1,"female","Trial:2",58,"z","z",1302,"13 "," 24","wrong",1,1302,1302
"369",369,"Digit Symbol - Kopie",1,"female","Trial:2",59,"z","z",1229,"13 "," 24","wrong",1,1229,1229
"370",370,"Digit Symbol - Kopie",1,"female","Trial:2",60,"m","m",1472,"13 "," 24","right",1,1472,1472
"371",371,"Digit Symbol - Kopie",1,"female","Trial:2",61,"m","m",1040,"13 "," 24","right",1,1040,1040
"372",372,"Digit Symbol - Kopie",1,"female","Trial:2",62,"m","m",762,"13 "," 24","right",1,762,762
"373",373,"Digit Symbol - Kopie",1,"female","Trial:2",63,"z","z",695,"13 "," 24","wrong",1,695,695
"374",374,"Digit Symbol - Kopie",1,"female","Trial:2",64,"m","m",807,"13 "," 24","right",1,807,807
"375",375,"Digit Symbol - Kopie",1,"female","Trial:2",65,"m","m",1058,"13 "," 24","right",1,1058,1058
"376",376,"Digit Symbol - Kopie",1,"female","Trial:2",66,"m","m",923,"13 "," 24","right",1,923,923
"377",377,"Digit Symbol - Kopie",1,"female","Trial:2",67,"z","z",937,"13 "," 24","wrong",1,937,937
"378",378,"Digit Symbol - Kopie",1,"female","Trial:2",68,"z","m",1311,"13 "," 24","wrong",0,NA,NA
"379",379,"Digit Symbol - Kopie",1,"female","Trial:2",69,"m","m",1318,"13 "," 24","right",1,1318,1318
"380",380,"Digit Symbol - Kopie",1,"female","Trial:2",70,"m","m",949,"13 "," 24","right",1,949,949
"381",381,"Digit Symbol - Kopie",1,"female","Trial:2",71,"z","z",1346,"13 "," 24","wrong",1,1346,1346
"382",382,"Digit Symbol - Kopie",1,"female","Trial:2",72,"z","z",1224,"13 "," 24","wrong",1,1224,1224
"383",383,"Digit Symbol - Kopie",1,"female","Trial:2",73,"m","m",1194,"13 "," 24","right",1,1194,1194
"384",384,"Digit Symbol - Kopie",1,"female","Trial:2",74,"z","z",1206,"13 "," 24","wrong",1,1206,1206
"385",385,"Digit Symbol - Kopie",1,"female","Trial:2",75,"m","m",1114,"13 "," 24","right",1,1114,1114
"386",386,"Digit Symbol - Kopie",1,"female","Trial:2",76,"m","m",904,"13 "," 24","right",1,904,904
"387",387,"Digit Symbol - Kopie",1,"female","Trial:2",77,"z","z",1215,"13 "," 24","wrong",1,1215,1215
"388",388,"Digit Symbol - Kopie",1,"female","Trial:2",78,"z","z",1138,"13 "," 24","wrong",1,1138,1138
"389",389,"Digit Symbol - Kopie",1,"female","Trial:2",79,"z","z",1375,"13 "," 24","wrong",1,1375,1375
"390",390,"Digit Symbol - Kopie",1,"female","Trial:2",80,"z","z",724,"13 "," 24","wrong",1,724,724
"391",391,"Digit Symbol - Kopie",1,"female","Trial:2",81,"z","z",754,"13 "," 24","wrong",1,754,754
"392",392,"Digit Symbol - Kopie",1,"female","Trial:2",82,"m","m",887,"13 "," 24","right",1,887,887
"393",393,"Digit Symbol - Kopie",1,"female","Trial:2",83,"z","z",735,"13 "," 24","wrong",1,735,735
"394",394,"Digit Symbol - Kopie",1,"female","Trial:2",84,"z","z",589,"13 "," 24","wrong",1,589,589
"395",395,"Digit Symbol - Kopie",1,"female","Trial:2",85,"m","m",1009,"13 "," 24","right",1,1009,1009
"396",396,"Digit Symbol - Kopie",1,"female","Trial:2",86,"m","m",804,"13 "," 24","right",1,804,804
"397",397,"Digit Symbol - Kopie",1,"female","Trial:2",87,"m","m",1151,"13 "," 24","right",1,1151,1151
"398",398,"Digit Symbol - Kopie",1,"female","Trial:2",88,"z","z",844,"13 "," 24","wrong",1,844,844
"399",399,"Digit Symbol - Kopie",1,"female","Trial:2",89,"z","z",1694,"13 "," 24","wrong",1,1694,1694
"400",400,"Digit Symbol - Kopie",1,"female","Trial:2",90,"m","m",958,"13 "," 24","right",1,958,958
"411",411,"Digit Symbol - Kopie",1,"female","Trial:2",1,"z","z",1272,"14 "," 24","wrong",1,1272,1272
"412",412,"Digit Symbol - Kopie",1,"female","Trial:2",2,"z","z",1736,"14 "," 24","wrong",1,1736,1736
"413",413,"Digit Symbol - Kopie",1,"female","Trial:2",3,"z","z",1318,"14 "," 24","wrong",1,1318,1318
"414",414,"Digit Symbol - Kopie",1,"female","Trial:2",4,"z","z",949,"14 "," 24","wrong",1,949,949
"415",415,"Digit Symbol - Kopie",1,"female","Trial:2",5,"m","m",1178,"14 "," 24","right",1,1178,1178
"416",416,"Digit Symbol - Kopie",1,"female","Trial:2",6,"m","m",1519,"14 "," 24","right",1,1519,1519
"417",417,"Digit Symbol - Kopie",1,"female","Trial:2",7,"z","z",1157,"14 "," 24","wrong",1,1157,1157
"418",418,"Digit Symbol - Kopie",1,"female","Trial:2",8,"m","m",1626,"14 "," 24","right",1,1626,1626
"419",419,"Digit Symbol - Kopie",1,"female","Trial:2",9,"m","m",1669,"14 "," 24","right",1,1669,1669
"420",420,"Digit Symbol - Kopie",1,"female","Trial:2",10,"z","z",1518,"14 "," 24","wrong",1,1518,1518
"421",421,"Digit Symbol - Kopie",1,"female","Trial:2",11,"m","m",1204,"14 "," 24","right",1,1204,1204
"422",422,"Digit Symbol - Kopie",1,"female","Trial:2",12,"z","z",1440,"14 "," 24","wrong",1,1440,1440
"423",423,"Digit Symbol - Kopie",1,"female","Trial:2",13,"z","z",1250,"14 "," 24","wrong",1,1250,1250
"424",424,"Digit Symbol - Kopie",1,"female","Trial:2",14,"z","z",1219,"14 "," 24","wrong",1,1219,1219
"425",425,"Digit Symbol - Kopie",1,"female","Trial:2",15,"z","z",1413,"14 "," 24","wrong",1,1413,1413
"426",426,"Digit Symbol - Kopie",1,"female","Trial:2",16,"z","z",1057,"14 "," 24","wrong",1,1057,1057
"427",427,"Digit Symbol - Kopie",1,"female","Trial:2",17,"z","z",1210,"14 "," 24","wrong",1,1210,1210
"428",428,"Digit Symbol - Kopie",1,"female","Trial:2",18,"z","z",861,"14 "," 24","wrong",1,861,861
"429",429,"Digit Symbol - Kopie",1,"female","Trial:2",19,"z","z",1310,"14 "," 24","wrong",1,1310,1310
"430",430,"Digit Symbol - Kopie",1,"female","Trial:2",20,"z","z",1181,"14 "," 24","wrong",1,1181,1181
"431",431,"Digit Symbol - Kopie",1,"female","Trial:2",21,"z","z",928,"14 "," 24","wrong",1,928,928
"432",432,"Digit Symbol - Kopie",1,"female","Trial:2",22,"m","m",1430,"14 "," 24","right",1,1430,1430
"433",433,"Digit Symbol - Kopie",1,"female","Trial:2",23,"m","m",1360,"14 "," 24","right",1,1360,1360
"434",434,"Digit Symbol - Kopie",1,"female","Trial:2",24,"z","z",1262,"14 "," 24","wrong",1,1262,1262
"435",435,"Digit Symbol - Kopie",1,"female","Trial:2",25,"m","m",1303,"14 "," 24","right",1,1303,1303
"436",436,"Digit Symbol - Kopie",1,"female","Trial:2",26,"z","z",1503,"14 "," 24","wrong",1,1503,1503
"437",437,"Digit Symbol - Kopie",1,"female","Trial:2",27,"m","m",1197,"14 "," 24","right",1,1197,1197
"438",438,"Digit Symbol - Kopie",1,"female","Trial:2",28,"z","z",1081,"14 "," 24","wrong",1,1081,1081
"439",439,"Digit Symbol - Kopie",1,"female","Trial:2",29,"m","m",1272,"14 "," 24","right",1,1272,1272
"440",440,"Digit Symbol - Kopie",1,"female","Trial:2",30,"m","m",1449,"14 "," 24","right",1,1449,1449
"441",441,"Digit Symbol - Kopie",1,"female","Trial:2",31,"z","z",1914,"14 "," 24","wrong",1,1914,1914
"442",442,"Digit Symbol - Kopie",1,"female","Trial:2",32,"m","m",1537,"14 "," 24","right",1,1537,1537
"443",443,"Digit Symbol - Kopie",1,"female","Trial:2",33,"z","z",2087,"14 "," 24","wrong",1,2087,2087
"444",444,"Digit Symbol - Kopie",1,"female","Trial:2",34,"m","m",855,"14 "," 24","right",1,855,855
"445",445,"Digit Symbol - Kopie",1,"female","Trial:2",35,"z","z",992,"14 "," 24","wrong",1,992,992
"446",446,"Digit Symbol - Kopie",1,"female","Trial:2",36,"m","m",860,"14 "," 24","right",1,860,860
"447",447,"Digit Symbol - Kopie",1,"female","Trial:2",37,"m","m",973,"14 "," 24","right",1,973,973
"448",448,"Digit Symbol - Kopie",1,"female","Trial:2",38,"z","z",1185,"14 "," 24","wrong",1,1185,1185
"449",449,"Digit Symbol - Kopie",1,"female","Trial:2",39,"m","m",1269,"14 "," 24","right",1,1269,1269
"450",450,"Digit Symbol - Kopie",1,"female","Trial:2",40,"m","m",1862,"14 "," 24","right",1,1862,1862
"451",451,"Digit Symbol - Kopie",1,"female","Trial:2",41,"m","m",1071,"14 "," 24","right",1,1071,1071
"452",452,"Digit Symbol - Kopie",1,"female","Trial:2",42,"m","m",920,"14 "," 24","right",1,920,920
"453",453,"Digit Symbol - Kopie",1,"female","Trial:2",43,"z","m",1126,"14 "," 24","wrong",0,NA,NA
"454",454,"Digit Symbol - Kopie",1,"female","Trial:2",44,"z","z",1589,"14 "," 24","wrong",1,1589,1589
"455",455,"Digit Symbol - Kopie",1,"female","Trial:2",45,"m","m",1497,"14 "," 24","right",1,1497,1497
"456",456,"Digit Symbol - Kopie",1,"female","Trial:2",46,"m","m",1113,"14 "," 24","right",1,1113,1113
"457",457,"Digit Symbol - Kopie",1,"female","Trial:2",47,"m","m",808,"14 "," 24","right",1,808,808
"458",458,"Digit Symbol - Kopie",1,"female","Trial:2",48,"m","m",1411,"14 "," 24","right",1,1411,1411
"459",459,"Digit Symbol - Kopie",1,"female","Trial:2",49,"z","z",1086,"14 "," 24","wrong",1,1086,1086
"460",460,"Digit Symbol - Kopie",1,"female","Trial:2",50,"z","z",1822,"14 "," 24","wrong",1,1822,1822
"461",461,"Digit Symbol - Kopie",1,"female","Trial:2",51,"z","z",1761,"14 "," 24","wrong",1,1761,1761
"462",462,"Digit Symbol - Kopie",1,"female","Trial:2",52,"m","m",1054,"14 "," 24","right",1,1054,1054
"463",463,"Digit Symbol - Kopie",1,"female","Trial:2",53,"z","z",1255,"14 "," 24","wrong",1,1255,1255
"464",464,"Digit Symbol - Kopie",1,"female","Trial:2",54,"z","z",1040,"14 "," 24","wrong",1,1040,1040
"465",465,"Digit Symbol - Kopie",1,"female","Trial:2",55,"z","z",1738,"14 "," 24","wrong",1,1738,1738
"466",466,"Digit Symbol - Kopie",1,"female","Trial:2",56,"m","z",952,"14 "," 24","right",0,NA,NA
"467",467,"Digit Symbol - Kopie",1,"female","Trial:2",57,"m","m",1037,"14 "," 24","right",1,1037,1037
"468",468,"Digit Symbol - Kopie",1,"female","Trial:2",58,"z","m",1015,"14 "," 24","wrong",0,NA,NA
"469",469,"Digit Symbol - Kopie",1,"female","Trial:2",59,"m","m",1874,"14 "," 24","right",1,1874,1874
"470",470,"Digit Symbol - Kopie",1,"female","Trial:2",60,"m","m",1218,"14 "," 24","right",1,1218,1218
"471",471,"Digit Symbol - Kopie",1,"female","Trial:2",61,"m","m",941,"14 "," 24","right",1,941,941
"472",472,"Digit Symbol - Kopie",1,"female","Trial:2",62,"m","m",939,"14 "," 24","right",1,939,939
"473",473,"Digit Symbol - Kopie",1,"female","Trial:2",63,"m","m",1152,"14 "," 24","right",1,1152,1152
"474",474,"Digit Symbol - Kopie",1,"female","Trial:2",64,"z","z",1782,"14 "," 24","wrong",1,1782,1782
"475",475,"Digit Symbol - Kopie",1,"female","Trial:2",65,"m","m",1506,"14 "," 24","right",1,1506,1506
"476",476,"Digit Symbol - Kopie",1,"female","Trial:2",66,"m","m",1001,"14 "," 24","right",1,1001,1001
"477",477,"Digit Symbol - Kopie",1,"female","Trial:2",67,"z","z",1276,"14 "," 24","wrong",1,1276,1276
"478",478,"Digit Symbol - Kopie",1,"female","Trial:2",68,"z","z",3484,"14 "," 24","wrong",1,3484,NA
"479",479,"Digit Symbol - Kopie",1,"female","Trial:2",69,"z","z",1221,"14 "," 24","wrong",1,1221,1221
"480",480,"Digit Symbol - Kopie",1,"female","Trial:2",70,"m","z",695,"14 "," 24","right",0,NA,NA
"481",481,"Digit Symbol - Kopie",1,"female","Trial:2",71,"z","z",1382,"14 "," 24","wrong",1,1382,1382
"482",482,"Digit Symbol - Kopie",1,"female","Trial:2",72,"m","m",1554,"14 "," 24","right",1,1554,1554
"483",483,"Digit Symbol - Kopie",1,"female","Trial:2",73,"z","z",1119,"14 "," 24","wrong",1,1119,1119
"484",484,"Digit Symbol - Kopie",1,"female","Trial:2",74,"z","z",973,"14 "," 24","wrong",1,973,973
"485",485,"Digit Symbol - Kopie",1,"female","Trial:2",75,"z","z",746,"14 "," 24","wrong",1,746,746
"486",486,"Digit Symbol - Kopie",1,"female","Trial:2",76,"z","z",1184,"14 "," 24","wrong",1,1184,1184
"487",487,"Digit Symbol - Kopie",1,"female","Trial:2",77,"z","z",899,"14 "," 24","wrong",1,899,899
"488",488,"Digit Symbol - Kopie",1,"female","Trial:2",78,"m","m",1082,"14 "," 24","right",1,1082,1082
"489",489,"Digit Symbol - Kopie",1,"female","Trial:2",79,"m","m",1042,"14 "," 24","right",1,1042,1042
"490",490,"Digit Symbol - Kopie",1,"female","Trial:2",80,"m","m",1164,"14 "," 24","right",1,1164,1164
"491",491,"Digit Symbol - Kopie",1,"female","Trial:2",81,"z","z",1337,"14 "," 24","wrong",1,1337,1337
"492",492,"Digit Symbol - Kopie",1,"female","Trial:2",82,"m","z",1143,"14 "," 24","wrong",0,NA,NA
"493",493,"Digit Symbol - Kopie",1,"female","Trial:2",83,"z","z",1412,"14 "," 24","wrong",1,1412,1412
"494",494,"Digit Symbol - Kopie",1,"female","Trial:2",84,"m","z",952,"14 "," 24","right",0,NA,NA
"495",495,"Digit Symbol - Kopie",1,"female","Trial:2",85,"m","m",933,"14 "," 24","right",1,933,933
"496",496,"Digit Symbol - Kopie",1,"female","Trial:2",86,"m","m",923,"14 "," 24","right",1,923,923
"497",497,"Digit Symbol - Kopie",1,"female","Trial:2",87,"m","m",1233,"14 "," 24","right",1,1233,1233
"498",498,"Digit Symbol - Kopie",1,"female","Trial:2",88,"m","m",859,"14 "," 24","right",1,859,859
"499",499,"Digit Symbol - Kopie",1,"female","Trial:2",89,"m","m",644,"14 "," 24","right",1,644,644
"500",500,"Digit Symbol - Kopie",1,"female","Trial:2",90,"m","m",1134,"14 "," 24","right",1,1134,1134
"511",511,"Digit Symbol - Kopie",1,"male","Trial:2",1,"z","z",1985,"15 "," 23","wrong",1,1985,1985
"512",512,"Digit Symbol - Kopie",1,"male","Trial:2",2,"z","z",1454,"15 "," 23","wrong",1,1454,1454
"513",513,"Digit Symbol - Kopie",1,"male","Trial:2",3,"m","z",1239,"15 "," 23","wrong",0,NA,NA
"514",514,"Digit Symbol - Kopie",1,"male","Trial:2",4,"z","z",1369,"15 "," 23","wrong",1,1369,1369
"515",515,"Digit Symbol - Kopie",1,"male","Trial:2",5,"z","z",1300,"15 "," 23","wrong",1,1300,1300
"516",516,"Digit Symbol - Kopie",1,"male","Trial:2",6,"z","z",1108,"15 "," 23","wrong",1,1108,1108
"517",517,"Digit Symbol - Kopie",1,"male","Trial:2",7,"z","z",1443,"15 "," 23","wrong",1,1443,1443
"518",518,"Digit Symbol - Kopie",1,"male","Trial:2",8,"m","m",1485,"15 "," 23","right",1,1485,1485
"519",519,"Digit Symbol - Kopie",1,"male","Trial:2",9,"m","m",869,"15 "," 23","right",1,869,869
"520",520,"Digit Symbol - Kopie",1,"male","Trial:2",10,"z","z",949,"15 "," 23","wrong",1,949,949
"521",521,"Digit Symbol - Kopie",1,"male","Trial:2",11,"z","z",2050,"15 "," 23","wrong",1,2050,2050
"522",522,"Digit Symbol - Kopie",1,"male","Trial:2",12,"m","m",1724,"15 "," 23","right",1,1724,1724
"523",523,"Digit Symbol - Kopie",1,"male","Trial:2",13,"m","m",1450,"15 "," 23","right",1,1450,1450
"524",524,"Digit Symbol - Kopie",1,"male","Trial:2",14,"z","z",1612,"15 "," 23","wrong",1,1612,1612
"525",525,"Digit Symbol - Kopie",1,"male","Trial:2",15,"m","m",871,"15 "," 23","right",1,871,871
"526",526,"Digit Symbol - Kopie",1,"male","Trial:2",16,"m","m",1159,"15 "," 23","right",1,1159,1159
"527",527,"Digit Symbol - Kopie",1,"male","Trial:2",17,"m","z",1021,"15 "," 23","right",0,NA,NA
"528",528,"Digit Symbol - Kopie",1,"male","Trial:2",18,"m","m",1055,"15 "," 23","right",1,1055,1055
"529",529,"Digit Symbol - Kopie",1,"male","Trial:2",19,"m","m",2160,"15 "," 23","right",1,2160,2160
"530",530,"Digit Symbol - Kopie",1,"male","Trial:2",20,"m","m",1478,"15 "," 23","right",1,1478,1478
"531",531,"Digit Symbol - Kopie",1,"male","Trial:2",21,"m","m",2030,"15 "," 23","right",1,2030,2030
"532",532,"Digit Symbol - Kopie",1,"male","Trial:2",22,"m","m",1984,"15 "," 23","right",1,1984,1984
"533",533,"Digit Symbol - Kopie",1,"male","Trial:2",23,"z","z",1661,"15 "," 23","wrong",1,1661,1661
"534",534,"Digit Symbol - Kopie",1,"male","Trial:2",24,"m","m",2566,"15 "," 23","right",1,2566,NA
"535",535,"Digit Symbol - Kopie",1,"male","Trial:2",25,"m","m",2507,"15 "," 23","right",1,2507,NA
"536",536,"Digit Symbol - Kopie",1,"male","Trial:2",26,"z","z",1394,"15 "," 23","wrong",1,1394,1394
"537",537,"Digit Symbol - Kopie",1,"male","Trial:2",27,"m","m",1390,"15 "," 23","right",1,1390,1390
"538",538,"Digit Symbol - Kopie",1,"male","Trial:2",28,"z","z",1530,"15 "," 23","wrong",1,1530,1530
"539",539,"Digit Symbol - Kopie",1,"male","Trial:2",29,"m","m",896,"15 "," 23","right",1,896,896
"540",540,"Digit Symbol - Kopie",1,"male","Trial:2",30,"m","m",1528,"15 "," 23","right",1,1528,1528
"541",541,"Digit Symbol - Kopie",1,"male","Trial:2",31,"m","m",1079,"15 "," 23","right",1,1079,1079
"542",542,"Digit Symbol - Kopie",1,"male","Trial:2",32,"m","z",919,"15 "," 23","right",0,NA,NA
"543",543,"Digit Symbol - Kopie",1,"male","Trial:2",33,"z","z",1350,"15 "," 23","wrong",1,1350,1350
"544",544,"Digit Symbol - Kopie",1,"male","Trial:2",34,"m","m",1003,"15 "," 23","right",1,1003,1003
"545",545,"Digit Symbol - Kopie",1,"male","Trial:2",35,"m","m",1414,"15 "," 23","right",1,1414,1414
"546",546,"Digit Symbol - Kopie",1,"male","Trial:2",36,"z","z",1529,"15 "," 23","wrong",1,1529,1529
"547",547,"Digit Symbol - Kopie",1,"male","Trial:2",37,"z","z",2134,"15 "," 23","wrong",1,2134,2134
"548",548,"Digit Symbol - Kopie",1,"male","Trial:2",38,"m","m",1348,"15 "," 23","right",1,1348,1348
"549",549,"Digit Symbol - Kopie",1,"male","Trial:2",39,"m","m",786,"15 "," 23","right",1,786,786
"550",550,"Digit Symbol - Kopie",1,"male","Trial:2",40,"z","z",1045,"15 "," 23","wrong",1,1045,1045
"551",551,"Digit Symbol - Kopie",1,"male","Trial:2",41,"m","m",1167,"15 "," 23","right",1,1167,1167
"552",552,"Digit Symbol - Kopie",1,"male","Trial:2",42,"z","z",1468,"15 "," 23","wrong",1,1468,1468
"553",553,"Digit Symbol - Kopie",1,"male","Trial:2",43,"z","z",1108,"15 "," 23","wrong",1,1108,1108
"554",554,"Digit Symbol - Kopie",1,"male","Trial:2",44,"z","z",1044,"15 "," 23","wrong",1,1044,1044
"555",555,"Digit Symbol - Kopie",1,"male","Trial:2",45,"m","m",1181,"15 "," 23","right",1,1181,1181
"556",556,"Digit Symbol - Kopie",1,"male","Trial:2",46,"z","z",1265,"15 "," 23","wrong",1,1265,1265
"557",557,"Digit Symbol - Kopie",1,"male","Trial:2",47,"m","m",1034,"15 "," 23","right",1,1034,1034
"558",558,"Digit Symbol - Kopie",1,"male","Trial:2",48,"m","m",2132,"15 "," 23","right",1,2132,2132
"559",559,"Digit Symbol - Kopie",1,"male","Trial:2",49,"z","z",2050,"15 "," 23","wrong",1,2050,2050
"560",560,"Digit Symbol - Kopie",1,"male","Trial:2",50,"z","z",1203,"15 "," 23","wrong",1,1203,1203
"561",561,"Digit Symbol - Kopie",1,"male","Trial:2",51,"z","z",2054,"15 "," 23","wrong",1,2054,2054
"562",562,"Digit Symbol - Kopie",1,"male","Trial:2",52,"m","m",864,"15 "," 23","right",1,864,864
"563",563,"Digit Symbol - Kopie",1,"male","Trial:2",53,"m","m",1112,"15 "," 23","right",1,1112,1112
"564",564,"Digit Symbol - Kopie",1,"male","Trial:2",54,"z","z",1031,"15 "," 23","wrong",1,1031,1031
"565",565,"Digit Symbol - Kopie",1,"male","Trial:2",55,"z","z",1393,"15 "," 23","wrong",1,1393,1393
"566",566,"Digit Symbol - Kopie",1,"male","Trial:2",56,"z","z",1421,"15 "," 23","wrong",1,1421,1421
"567",567,"Digit Symbol - Kopie",1,"male","Trial:2",57,"z","z",1647,"15 "," 23","wrong",1,1647,1647
"568",568,"Digit Symbol - Kopie",1,"male","Trial:2",58,"m","m",1944,"15 "," 23","right",1,1944,1944
"569",569,"Digit Symbol - Kopie",1,"male","Trial:2",59,"z","z",1383,"15 "," 23","wrong",1,1383,1383
"570",570,"Digit Symbol - Kopie",1,"male","Trial:2",60,"m","m",1659,"15 "," 23","right",1,1659,1659
"571",571,"Digit Symbol - Kopie",1,"male","Trial:2",61,"z","z",1012,"15 "," 23","wrong",1,1012,1012
"572",572,"Digit Symbol - Kopie",1,"male","Trial:2",62,"z","z",1327,"15 "," 23","wrong",1,1327,1327
"573",573,"Digit Symbol - Kopie",1,"male","Trial:2",63,"m","m",1454,"15 "," 23","right",1,1454,1454
"574",574,"Digit Symbol - Kopie",1,"male","Trial:2",64,"z","z",1455,"15 "," 23","wrong",1,1455,1455
"575",575,"Digit Symbol - Kopie",1,"male","Trial:2",65,"m","m",1640,"15 "," 23","right",1,1640,1640
"576",576,"Digit Symbol - Kopie",1,"male","Trial:2",66,"m","m",1938,"15 "," 23","right",1,1938,1938
"577",577,"Digit Symbol - Kopie",1,"male","Trial:2",67,"m","m",1632,"15 "," 23","right",1,1632,1632
"578",578,"Digit Symbol - Kopie",1,"male","Trial:2",68,"z","z",1394,"15 "," 23","wrong",1,1394,1394
"579",579,"Digit Symbol - Kopie",1,"male","Trial:2",69,"m","m",1086,"15 "," 23","right",1,1086,1086
"580",580,"Digit Symbol - Kopie",1,"male","Trial:2",70,"m","m",1526,"15 "," 23","right",1,1526,1526
"581",581,"Digit Symbol - Kopie",1,"male","Trial:2",71,"z","z",885,"15 "," 23","wrong",1,885,885
"582",582,"Digit Symbol - Kopie",1,"male","Trial:2",72,"z","z",1300,"15 "," 23","wrong",1,1300,1300
"583",583,"Digit Symbol - Kopie",1,"male","Trial:2",73,"z","z",1699,"15 "," 23","wrong",1,1699,1699
"584",584,"Digit Symbol - Kopie",1,"male","Trial:2",74,"z","z",1378,"15 "," 23","wrong",1,1378,1378
"585",585,"Digit Symbol - Kopie",1,"male","Trial:2",75,"z","z",1303,"15 "," 23","wrong",1,1303,1303
"586",586,"Digit Symbol - Kopie",1,"male","Trial:2",76,"m","m",1486,"15 "," 23","right",1,1486,1486
"587",587,"Digit Symbol - Kopie",1,"male","Trial:2",77,"m","z",830,"15 "," 23","right",0,NA,NA
"588",588,"Digit Symbol - Kopie",1,"male","Trial:2",78,"z","z",1160,"15 "," 23","wrong",1,1160,1160
"589",589,"Digit Symbol - Kopie",1,"male","Trial:2",79,"z","z",901,"15 "," 23","wrong",1,901,901
"590",590,"Digit Symbol - Kopie",1,"male","Trial:2",80,"z","z",852,"15 "," 23","wrong",1,852,852
"591",591,"Digit Symbol - Kopie",1,"male","Trial:2",81,"m","m",1246,"15 "," 23","right",1,1246,1246
"592",592,"Digit Symbol - Kopie",1,"male","Trial:2",82,"z","z",1799,"15 "," 23","wrong",1,1799,1799
"593",593,"Digit Symbol - Kopie",1,"male","Trial:2",83,"m","m",1859,"15 "," 23","right",1,1859,1859
"594",594,"Digit Symbol - Kopie",1,"male","Trial:2",84,"z","z",1012,"15 "," 23","wrong",1,1012,1012
"595",595,"Digit Symbol - Kopie",1,"male","Trial:2",85,"z","z",1527,"15 "," 23","wrong",1,1527,1527
"596",596,"Digit Symbol - Kopie",1,"male","Trial:2",86,"m","m",1142,"15 "," 23","right",1,1142,1142
"597",597,"Digit Symbol - Kopie",1,"male","Trial:2",87,"z","z",1220,"15 "," 23","wrong",1,1220,1220
"598",598,"Digit Symbol - Kopie",1,"male","Trial:2",88,"m","m",934,"15 "," 23","right",1,934,934
"599",599,"Digit Symbol - Kopie",1,"male","Trial:2",89,"m","m",1700,"15 "," 23","right",1,1700,1700
"600",600,"Digit Symbol - Kopie",1,"male","Trial:2",90,"m","m",579,"15 "," 23","right",1,579,579
"611",611,"Digit Symbol - Kopie",1,"female","Trial:2",1,"m","m",1195,"16 "," 20","right",1,1195,1195
"612",612,"Digit Symbol - Kopie",1,"female","Trial:2",2,"z","z",1990,"16 "," 20","wrong",1,1990,1990
"613",613,"Digit Symbol - Kopie",1,"female","Trial:2",3,"m","m",874,"16 "," 20","right",1,874,874
"614",614,"Digit Symbol - Kopie",1,"female","Trial:2",4,"z","z",1203,"16 "," 20","wrong",1,1203,1203
"615",615,"Digit Symbol - Kopie",1,"female","Trial:2",5,"z","m",934,"16 "," 20","wrong",0,NA,NA
"616",616,"Digit Symbol - Kopie",1,"female","Trial:2",6,"m","m",1108,"16 "," 20","right",1,1108,1108
"617",617,"Digit Symbol - Kopie",1,"female","Trial:2",7,"z","z",1107,"16 "," 20","wrong",1,1107,1107
"618",618,"Digit Symbol - Kopie",1,"female","Trial:2",8,"z","z",1042,"16 "," 20","wrong",1,1042,1042
"619",619,"Digit Symbol - Kopie",1,"female","Trial:2",9,"m","m",956,"16 "," 20","right",1,956,956
"620",620,"Digit Symbol - Kopie",1,"female","Trial:2",10,"z","z",1193,"16 "," 20","wrong",1,1193,1193
"621",621,"Digit Symbol - Kopie",1,"female","Trial:2",11,"m","m",1053,"16 "," 20","right",1,1053,1053
"622",622,"Digit Symbol - Kopie",1,"female","Trial:2",12,"z","z",846,"16 "," 20","wrong",1,846,846
"623",623,"Digit Symbol - Kopie",1,"female","Trial:2",13,"m","m",1432,"16 "," 20","right",1,1432,1432
"624",624,"Digit Symbol - Kopie",1,"female","Trial:2",14,"z","z",802,"16 "," 20","wrong",1,802,802
"625",625,"Digit Symbol - Kopie",1,"female","Trial:2",15,"m","m",1229,"16 "," 20","right",1,1229,1229
"626",626,"Digit Symbol - Kopie",1,"female","Trial:2",16,"m","m",1095,"16 "," 20","right",1,1095,1095
"627",627,"Digit Symbol - Kopie",1,"female","Trial:2",17,"z","z",1159,"16 "," 20","wrong",1,1159,1159
"628",628,"Digit Symbol - Kopie",1,"female","Trial:2",18,"z","z",1108,"16 "," 20","wrong",1,1108,1108
"629",629,"Digit Symbol - Kopie",1,"female","Trial:2",19,"m","m",820,"16 "," 20","right",1,820,820
"630",630,"Digit Symbol - Kopie",1,"female","Trial:2",20,"m","m",1070,"16 "," 20","right",1,1070,1070
"631",631,"Digit Symbol - Kopie",1,"female","Trial:2",21,"m","m",862,"16 "," 20","right",1,862,862
"632",632,"Digit Symbol - Kopie",1,"female","Trial:2",22,"m","m",856,"16 "," 20","right",1,856,856
"633",633,"Digit Symbol - Kopie",1,"female","Trial:2",23,"m","m",825,"16 "," 20","right",1,825,825
"634",634,"Digit Symbol - Kopie",1,"female","Trial:2",24,"m","m",1251,"16 "," 20","right",1,1251,1251
"635",635,"Digit Symbol - Kopie",1,"female","Trial:2",25,"m","m",876,"16 "," 20","right",1,876,876
"636",636,"Digit Symbol - Kopie",1,"female","Trial:2",26,"z","z",1045,"16 "," 20","wrong",1,1045,1045
"637",637,"Digit Symbol - Kopie",1,"female","Trial:2",27,"m","m",903,"16 "," 20","right",1,903,903
"638",638,"Digit Symbol - Kopie",1,"female","Trial:2",28,"z","z",894,"16 "," 20","wrong",1,894,894
"639",639,"Digit Symbol - Kopie",1,"female","Trial:2",29,"z","z",813,"16 "," 20","wrong",1,813,813
"640",640,"Digit Symbol - Kopie",1,"female","Trial:2",30,"m","m",1440,"16 "," 20","right",1,1440,1440
"641",641,"Digit Symbol - Kopie",1,"female","Trial:2",31,"z","z",938,"16 "," 20","wrong",1,938,938
"642",642,"Digit Symbol - Kopie",1,"female","Trial:2",32,"z","z",1032,"16 "," 20","wrong",1,1032,1032
"643",643,"Digit Symbol - Kopie",1,"female","Trial:2",33,"z","z",898,"16 "," 20","wrong",1,898,898
"644",644,"Digit Symbol - Kopie",1,"female","Trial:2",34,"m","m",1129,"16 "," 20","right",1,1129,1129
"645",645,"Digit Symbol - Kopie",1,"female","Trial:2",35,"m","m",1032,"16 "," 20","right",1,1032,1032
"646",646,"Digit Symbol - Kopie",1,"female","Trial:2",36,"m","m",777,"16 "," 20","right",1,777,777
"647",647,"Digit Symbol - Kopie",1,"female","Trial:2",37,"m","m",1390,"16 "," 20","right",1,1390,1390
"648",648,"Digit Symbol - Kopie",1,"female","Trial:2",38,"z","z",890,"16 "," 20","wrong",1,890,890
"649",649,"Digit Symbol - Kopie",1,"female","Trial:2",39,"m","m",897,"16 "," 20","right",1,897,897
"650",650,"Digit Symbol - Kopie",1,"female","Trial:2",40,"z","z",729,"16 "," 20","wrong",1,729,729
"651",651,"Digit Symbol - Kopie",1,"female","Trial:2",41,"m","m",703,"16 "," 20","right",1,703,703
"652",652,"Digit Symbol - Kopie",1,"female","Trial:2",42,"m","m",1150,"16 "," 20","right",1,1150,1150
"653",653,"Digit Symbol - Kopie",1,"female","Trial:2",43,"m","m",963,"16 "," 20","right",1,963,963
"654",654,"Digit Symbol - Kopie",1,"female","Trial:2",44,"m","z",1224,"16 "," 20","wrong",0,NA,NA
"655",655,"Digit Symbol - Kopie",1,"female","Trial:2",45,"m","m",1531,"16 "," 20","right",1,1531,1531
"656",656,"Digit Symbol - Kopie",1,"female","Trial:2",46,"m","m",889,"16 "," 20","right",1,889,889
"657",657,"Digit Symbol - Kopie",1,"female","Trial:2",47,"z","z",937,"16 "," 20","wrong",1,937,937
"658",658,"Digit Symbol - Kopie",1,"female","Trial:2",48,"z","z",910,"16 "," 20","wrong",1,910,910
"659",659,"Digit Symbol - Kopie",1,"female","Trial:2",49,"z","z",781,"16 "," 20","wrong",1,781,781
"660",660,"Digit Symbol - Kopie",1,"female","Trial:2",50,"z","z",777,"16 "," 20","wrong",1,777,777
"661",661,"Digit Symbol - Kopie",1,"female","Trial:2",51,"m","m",926,"16 "," 20","right",1,926,926
"662",662,"Digit Symbol - Kopie",1,"female","Trial:2",52,"z","z",948,"16 "," 20","wrong",1,948,948
"663",663,"Digit Symbol - Kopie",1,"female","Trial:2",53,"m","m",1169,"16 "," 20","right",1,1169,1169
"664",664,"Digit Symbol - Kopie",1,"female","Trial:2",54,"m","m",886,"16 "," 20","right",1,886,886
"665",665,"Digit Symbol - Kopie",1,"female","Trial:2",55,"z","m",644,"16 "," 20","wrong",0,NA,NA
"666",666,"Digit Symbol - Kopie",1,"female","Trial:2",56,"z","z",791,"16 "," 20","wrong",1,791,791
"667",667,"Digit Symbol - Kopie",1,"female","Trial:2",57,"z","z",739,"16 "," 20","wrong",1,739,739
"668",668,"Digit Symbol - Kopie",1,"female","Trial:2",58,"z","z",744,"16 "," 20","wrong",1,744,744
"669",669,"Digit Symbol - Kopie",1,"female","Trial:2",59,"m","m",1061,"16 "," 20","right",1,1061,1061
"670",670,"Digit Symbol - Kopie",1,"female","Trial:2",60,"m","m",1222,"16 "," 20","right",1,1222,1222
"671",671,"Digit Symbol - Kopie",1,"female","Trial:2",61,"m","m",937,"16 "," 20","right",1,937,937
"672",672,"Digit Symbol - Kopie",1,"female","Trial:2",62,"z","z",719,"16 "," 20","wrong",1,719,719
"673",673,"Digit Symbol - Kopie",1,"female","Trial:2",63,"z","z",621,"16 "," 20","wrong",1,621,621
"674",674,"Digit Symbol - Kopie",1,"female","Trial:2",64,"z","z",623,"16 "," 20","wrong",1,623,623
"675",675,"Digit Symbol - Kopie",1,"female","Trial:2",65,"m","m",898,"16 "," 20","right",1,898,898
"676",676,"Digit Symbol - Kopie",1,"female","Trial:2",66,"m","m",977,"16 "," 20","right",1,977,977
"677",677,"Digit Symbol - Kopie",1,"female","Trial:2",67,"z","z",661,"16 "," 20","wrong",1,661,661
"678",678,"Digit Symbol - Kopie",1,"female","Trial:2",68,"m","m",870,"16 "," 20","right",1,870,870
"679",679,"Digit Symbol - Kopie",1,"female","Trial:2",69,"z","z",847,"16 "," 20","wrong",1,847,847
"680",680,"Digit Symbol - Kopie",1,"female","Trial:2",70,"m","m",896,"16 "," 20","right",1,896,896
"681",681,"Digit Symbol - Kopie",1,"female","Trial:2",71,"z","z",856,"16 "," 20","wrong",1,856,856
"682",682,"Digit Symbol - Kopie",1,"female","Trial:2",72,"m","z",529,"16 "," 20","right",0,NA,NA
"683",683,"Digit Symbol - Kopie",1,"female","Trial:2",73,"z","z",815,"16 "," 20","wrong",1,815,815
"684",684,"Digit Symbol - Kopie",1,"female","Trial:2",74,"m","m",1057,"16 "," 20","right",1,1057,1057
"685",685,"Digit Symbol - Kopie",1,"female","Trial:2",75,"z","z",835,"16 "," 20","wrong",1,835,835
"686",686,"Digit Symbol - Kopie",1,"female","Trial:2",76,"m","m",1020,"16 "," 20","right",1,1020,1020
"687",687,"Digit Symbol - Kopie",1,"female","Trial:2",77,"m","m",823,"16 "," 20","right",1,823,823
"688",688,"Digit Symbol - Kopie",1,"female","Trial:2",78,"m","m",1201,"16 "," 20","right",1,1201,1201
"689",689,"Digit Symbol - Kopie",1,"female","Trial:2",79,"z","z",1164,"16 "," 20","wrong",1,1164,1164
"690",690,"Digit Symbol - Kopie",1,"female","Trial:2",80,"z","z",897,"16 "," 20","wrong",1,897,897
"691",691,"Digit Symbol - Kopie",1,"female","Trial:2",81,"z","z",688,"16 "," 20","wrong",1,688,688
"692",692,"Digit Symbol - Kopie",1,"female","Trial:2",82,"z","z",736,"16 "," 20","wrong",1,736,736
"693",693,"Digit Symbol - Kopie",1,"female","Trial:2",83,"z","z",558,"16 "," 20","wrong",1,558,558
"694",694,"Digit Symbol - Kopie",1,"female","Trial:2",84,"m","m",571,"16 "," 20","right",1,571,571
"695",695,"Digit Symbol - Kopie",1,"female","Trial:2",85,"z","z",687,"16 "," 20","wrong",1,687,687
"696",696,"Digit Symbol - Kopie",1,"female","Trial:2",86,"z","z",831,"16 "," 20","wrong",1,831,831
"697",697,"Digit Symbol - Kopie",1,"female","Trial:2",87,"m","m",1016,"16 "," 20","right",1,1016,1016
"698",698,"Digit Symbol - Kopie",1,"female","Trial:2",88,"m","m",843,"16 "," 20","right",1,843,843
"699",699,"Digit Symbol - Kopie",1,"female","Trial:2",89,"z","z",749,"16 "," 20","wrong",1,749,749
"700",700,"Digit Symbol - Kopie",1,"female","Trial:2",90,"z","z",650,"16 "," 20","wrong",1,650,650
"711",711,"Digit Symbol - Kopie",1,"female","Trial:2",1,"z","z",1317,"17 "," 29","wrong",1,1317,1317
"712",712,"Digit Symbol - Kopie",1,"female","Trial:2",2,"z","z",1139,"17 "," 29","wrong",1,1139,1139
"713",713,"Digit Symbol - Kopie",1,"female","Trial:2",3,"z","z",1121,"17 "," 29","wrong",1,1121,1121
"714",714,"Digit Symbol - Kopie",1,"female","Trial:2",4,"z","z",1167,"17 "," 29","wrong",1,1167,1167
"715",715,"Digit Symbol - Kopie",1,"female","Trial:2",5,"z","z",852,"17 "," 29","wrong",1,852,852
"716",716,"Digit Symbol - Kopie",1,"female","Trial:2",6,"m","m",1037,"17 "," 29","right",1,1037,1037
"717",717,"Digit Symbol - Kopie",1,"female","Trial:2",7,"m","m",943,"17 "," 29","right",1,943,943
"718",718,"Digit Symbol - Kopie",1,"female","Trial:2",8,"z","z",1213,"17 "," 29","wrong",1,1213,1213
"719",719,"Digit Symbol - Kopie",1,"female","Trial:2",9,"z","z",1136,"17 "," 29","wrong",1,1136,1136
"720",720,"Digit Symbol - Kopie",1,"female","Trial:2",10,"m","m",894,"17 "," 29","right",1,894,894
"721",721,"Digit Symbol - Kopie",1,"female","Trial:2",11,"z","z",1445,"17 "," 29","wrong",1,1445,1445
"722",722,"Digit Symbol - Kopie",1,"female","Trial:2",12,"m","m",1463,"17 "," 29","right",1,1463,1463
"723",723,"Digit Symbol - Kopie",1,"female","Trial:2",13,"m","m",912,"17 "," 29","right",1,912,912
"724",724,"Digit Symbol - Kopie",1,"female","Trial:2",14,"z","z",767,"17 "," 29","wrong",1,767,767
"725",725,"Digit Symbol - Kopie",1,"female","Trial:2",15,"z","m",963,"17 "," 29","wrong",0,NA,NA
"726",726,"Digit Symbol - Kopie",1,"female","Trial:2",16,"z","z",1144,"17 "," 29","wrong",1,1144,1144
"727",727,"Digit Symbol - Kopie",1,"female","Trial:2",17,"m","m",1006,"17 "," 29","right",1,1006,1006
"728",728,"Digit Symbol - Kopie",1,"female","Trial:2",18,"m","z",1057,"17 "," 29","wrong",0,NA,NA
"729",729,"Digit Symbol - Kopie",1,"female","Trial:2",19,"z","z",882,"17 "," 29","wrong",1,882,882
"730",730,"Digit Symbol - Kopie",1,"female","Trial:2",20,"m","m",930,"17 "," 29","right",1,930,930
"731",731,"Digit Symbol - Kopie",1,"female","Trial:2",21,"z","z",1088,"17 "," 29","wrong",1,1088,1088
"732",732,"Digit Symbol - Kopie",1,"female","Trial:2",22,"m","m",1256,"17 "," 29","right",1,1256,1256
"733",733,"Digit Symbol - Kopie",1,"female","Trial:2",23,"z","z",897,"17 "," 29","wrong",1,897,897
"734",734,"Digit Symbol - Kopie",1,"female","Trial:2",24,"z","z",648,"17 "," 29","wrong",1,648,648
"735",735,"Digit Symbol - Kopie",1,"female","Trial:2",25,"z","z",825,"17 "," 29","wrong",1,825,825
"736",736,"Digit Symbol - Kopie",1,"female","Trial:2",26,"z","z",652,"17 "," 29","wrong",1,652,652
"737",737,"Digit Symbol - Kopie",1,"female","Trial:2",27,"m","m",957,"17 "," 29","right",1,957,957
"738",738,"Digit Symbol - Kopie",1,"female","Trial:2",28,"z","z",1010,"17 "," 29","wrong",1,1010,1010
"739",739,"Digit Symbol - Kopie",1,"female","Trial:2",29,"z","z",1653,"17 "," 29","wrong",1,1653,1653
"740",740,"Digit Symbol - Kopie",1,"female","Trial:2",30,"z","z",934,"17 "," 29","wrong",1,934,934
"741",741,"Digit Symbol - Kopie",1,"female","Trial:2",31,"m","m",988,"17 "," 29","right",1,988,988
"742",742,"Digit Symbol - Kopie",1,"female","Trial:2",32,"m","m",1208,"17 "," 29","right",1,1208,1208
"743",743,"Digit Symbol - Kopie",1,"female","Trial:2",33,"m","m",995,"17 "," 29","right",1,995,995
"744",744,"Digit Symbol - Kopie",1,"female","Trial:2",34,"m","z",999,"17 "," 29","right",0,NA,NA
"745",745,"Digit Symbol - Kopie",1,"female","Trial:2",35,"z","z",1394,"17 "," 29","wrong",1,1394,1394
"746",746,"Digit Symbol - Kopie",1,"female","Trial:2",36,"m","m",1022,"17 "," 29","right",1,1022,1022
"747",747,"Digit Symbol - Kopie",1,"female","Trial:2",37,"m","m",1305,"17 "," 29","right",1,1305,1305
"748",748,"Digit Symbol - Kopie",1,"female","Trial:2",38,"m","m",800,"17 "," 29","right",1,800,800
"749",749,"Digit Symbol - Kopie",1,"female","Trial:2",39,"z","z",851,"17 "," 29","wrong",1,851,851
"750",750,"Digit Symbol - Kopie",1,"female","Trial:2",40,"m","m",1131,"17 "," 29","right",1,1131,1131
"751",751,"Digit Symbol - Kopie",1,"female","Trial:2",41,"m","m",1105,"17 "," 29","right",1,1105,1105
"752",752,"Digit Symbol - Kopie",1,"female","Trial:2",42,"z","z",1080,"17 "," 29","wrong",1,1080,1080
"753",753,"Digit Symbol - Kopie",1,"female","Trial:2",43,"m","m",1320,"17 "," 29","right",1,1320,1320
"754",754,"Digit Symbol - Kopie",1,"female","Trial:2",44,"m","m",822,"17 "," 29","right",1,822,822
"755",755,"Digit Symbol - Kopie",1,"female","Trial:2",45,"z","z",1177,"17 "," 29","wrong",1,1177,1177
"756",756,"Digit Symbol - Kopie",1,"female","Trial:2",46,"m","m",1645,"17 "," 29","right",1,1645,1645
"757",757,"Digit Symbol - Kopie",1,"female","Trial:2",47,"z","z",919,"17 "," 29","wrong",1,919,919
"758",758,"Digit Symbol - Kopie",1,"female","Trial:2",48,"z","z",1518,"17 "," 29","wrong",1,1518,1518
"759",759,"Digit Symbol - Kopie",1,"female","Trial:2",49,"z","z",1292,"17 "," 29","wrong",1,1292,1292
"760",760,"Digit Symbol - Kopie",1,"female","Trial:2",50,"m","m",1044,"17 "," 29","right",1,1044,1044
"761",761,"Digit Symbol - Kopie",1,"female","Trial:2",51,"z","z",934,"17 "," 29","wrong",1,934,934
"762",762,"Digit Symbol - Kopie",1,"female","Trial:2",52,"m","m",1116,"17 "," 29","right",1,1116,1116
"763",763,"Digit Symbol - Kopie",1,"female","Trial:2",53,"m","m",1650,"17 "," 29","right",1,1650,1650
"764",764,"Digit Symbol - Kopie",1,"female","Trial:2",54,"m","m",1036,"17 "," 29","right",1,1036,1036
"765",765,"Digit Symbol - Kopie",1,"female","Trial:2",55,"m","m",957,"17 "," 29","right",1,957,957
"766",766,"Digit Symbol - Kopie",1,"female","Trial:2",56,"m","m",699,"17 "," 29","right",1,699,699
"767",767,"Digit Symbol - Kopie",1,"female","Trial:2",57,"m","z",1258,"17 "," 29","right",0,NA,NA
"768",768,"Digit Symbol - Kopie",1,"female","Trial:2",58,"z","m",939,"17 "," 29","wrong",0,NA,NA
"769",769,"Digit Symbol - Kopie",1,"female","Trial:2",59,"z","z",1177,"17 "," 29","wrong",1,1177,1177
"770",770,"Digit Symbol - Kopie",1,"female","Trial:2",60,"m","m",781,"17 "," 29","right",1,781,781
"771",771,"Digit Symbol - Kopie",1,"female","Trial:2",61,"z","z",825,"17 "," 29","wrong",1,825,825
"772",772,"Digit Symbol - Kopie",1,"female","Trial:2",62,"m","m",739,"17 "," 29","right",1,739,739
"773",773,"Digit Symbol - Kopie",1,"female","Trial:2",63,"m","m",833,"17 "," 29","right",1,833,833
"774",774,"Digit Symbol - Kopie",1,"female","Trial:2",64,"m","m",795,"17 "," 29","right",1,795,795
"775",775,"Digit Symbol - Kopie",1,"female","Trial:2",65,"z","z",982,"17 "," 29","wrong",1,982,982
"776",776,"Digit Symbol - Kopie",1,"female","Trial:2",66,"m","m",770,"17 "," 29","right",1,770,770
"777",777,"Digit Symbol - Kopie",1,"female","Trial:2",67,"z","z",1023,"17 "," 29","wrong",1,1023,1023
"778",778,"Digit Symbol - Kopie",1,"female","Trial:2",68,"m","m",921,"17 "," 29","right",1,921,921
"779",779,"Digit Symbol - Kopie",1,"female","Trial:2",69,"m","m",824,"17 "," 29","right",1,824,824
"780",780,"Digit Symbol - Kopie",1,"female","Trial:2",70,"z","m",858,"17 "," 29","wrong",0,NA,NA
"781",781,"Digit Symbol - Kopie",1,"female","Trial:2",71,"m","m",843,"17 "," 29","right",1,843,843
"782",782,"Digit Symbol - Kopie",1,"female","Trial:2",72,"z","z",2237,"17 "," 29","wrong",1,2237,2237
"783",783,"Digit Symbol - Kopie",1,"female","Trial:2",73,"z","z",1135,"17 "," 29","wrong",1,1135,1135
"784",784,"Digit Symbol - Kopie",1,"female","Trial:2",74,"m","m",1045,"17 "," 29","right",1,1045,1045
"785",785,"Digit Symbol - Kopie",1,"female","Trial:2",75,"z","z",855,"17 "," 29","wrong",1,855,855
"786",786,"Digit Symbol - Kopie",1,"female","Trial:2",76,"z","z",1216,"17 "," 29","wrong",1,1216,1216
"787",787,"Digit Symbol - Kopie",1,"female","Trial:2",77,"z","z",1002,"17 "," 29","wrong",1,1002,1002
"788",788,"Digit Symbol - Kopie",1,"female","Trial:2",78,"z","z",1045,"17 "," 29","wrong",1,1045,1045
"789",789,"Digit Symbol - Kopie",1,"female","Trial:2",79,"z","z",1111,"17 "," 29","wrong",1,1111,1111
"790",790,"Digit Symbol - Kopie",1,"female","Trial:2",80,"m","m",1158,"17 "," 29","right",1,1158,1158
"791",791,"Digit Symbol - Kopie",1,"female","Trial:2",81,"m","m",1108,"17 "," 29","right",1,1108,1108
"792",792,"Digit Symbol - Kopie",1,"female","Trial:2",82,"m","m",1875,"17 "," 29","right",1,1875,1875
"793",793,"Digit Symbol - Kopie",1,"female","Trial:2",83,"m","m",1147,"17 "," 29","right",1,1147,1147
"794",794,"Digit Symbol - Kopie",1,"female","Trial:2",84,"m","m",913,"17 "," 29","right",1,913,913
"795",795,"Digit Symbol - Kopie",1,"female","Trial:2",85,"z","z",856,"17 "," 29","wrong",1,856,856
"796",796,"Digit Symbol - Kopie",1,"female","Trial:2",86,"z","m",1153,"17 "," 29","wrong",0,NA,NA
"797",797,"Digit Symbol - Kopie",1,"female","Trial:2",87,"m","m",1158,"17 "," 29","right",1,1158,1158
"798",798,"Digit Symbol - Kopie",1,"female","Trial:2",88,"m","m",923,"17 "," 29","right",1,923,923
"799",799,"Digit Symbol - Kopie",1,"female","Trial:2",89,"m","m",1346,"17 "," 29","right",1,1346,1346
"800",800,"Digit Symbol - Kopie",1,"female","Trial:2",90,"z","z",1008,"17 "," 29","wrong",1,1008,1008
"811",811,"Digit Symbol - Kopie",1,"female","Trial:2",1,"m","m",2117,"18 "," 29","right",1,2117,2117
"812",812,"Digit Symbol - Kopie",1,"female","Trial:2",2,"z","z",1356,"18 "," 29","wrong",1,1356,1356
"813",813,"Digit Symbol - Kopie",1,"female","Trial:2",3,"z","z",1896,"18 "," 29","wrong",1,1896,1896
"814",814,"Digit Symbol - Kopie",1,"female","Trial:2",4,"m","z",1071,"18 "," 29","right",0,NA,NA
"815",815,"Digit Symbol - Kopie",1,"female","Trial:2",5,"z","z",1936,"18 "," 29","wrong",1,1936,1936
"816",816,"Digit Symbol - Kopie",1,"female","Trial:2",6,"m","m",1206,"18 "," 29","right",1,1206,1206
"817",817,"Digit Symbol - Kopie",1,"female","Trial:2",7,"m","m",1657,"18 "," 29","right",1,1657,1657
"818",818,"Digit Symbol - Kopie",1,"female","Trial:2",8,"m","m",1875,"18 "," 29","right",1,1875,1875
"819",819,"Digit Symbol - Kopie",1,"female","Trial:2",9,"z","z",1315,"18 "," 29","wrong",1,1315,1315
"820",820,"Digit Symbol - Kopie",1,"female","Trial:2",10,"z","z",2714,"18 "," 29","wrong",1,2714,NA
"821",821,"Digit Symbol - Kopie",1,"female","Trial:2",11,"z","z",1841,"18 "," 29","wrong",1,1841,1841
"822",822,"Digit Symbol - Kopie",1,"female","Trial:2",12,"m","m",995,"18 "," 29","right",1,995,995
"823",823,"Digit Symbol - Kopie",1,"female","Trial:2",13,"m","m",1319,"18 "," 29","right",1,1319,1319
"824",824,"Digit Symbol - Kopie",1,"female","Trial:2",14,"z","z",1381,"18 "," 29","wrong",1,1381,1381
"825",825,"Digit Symbol - Kopie",1,"female","Trial:2",15,"m","m",1969,"18 "," 29","right",1,1969,1969
"826",826,"Digit Symbol - Kopie",1,"female","Trial:2",16,"z","z",1726,"18 "," 29","wrong",1,1726,1726
"827",827,"Digit Symbol - Kopie",1,"female","Trial:2",17,"m","m",1357,"18 "," 29","right",1,1357,1357
"828",828,"Digit Symbol - Kopie",1,"female","Trial:2",18,"m","m",1130,"18 "," 29","right",1,1130,1130
"829",829,"Digit Symbol - Kopie",1,"female","Trial:2",19,"m","m",880,"18 "," 29","right",1,880,880
"830",830,"Digit Symbol - Kopie",1,"female","Trial:2",20,"z","z",2160,"18 "," 29","wrong",1,2160,2160
"831",831,"Digit Symbol - Kopie",1,"female","Trial:2",21,"z","z",1542,"18 "," 29","wrong",1,1542,1542
"832",832,"Digit Symbol - Kopie",1,"female","Trial:2",22,"m","m",1340,"18 "," 29","right",1,1340,1340
"833",833,"Digit Symbol - Kopie",1,"female","Trial:2",23,"m","m",1346,"18 "," 29","right",1,1346,1346
"834",834,"Digit Symbol - Kopie",1,"female","Trial:2",24,"z","z",2672,"18 "," 29","wrong",1,2672,NA
"835",835,"Digit Symbol - Kopie",1,"female","Trial:2",25,"m","m",1680,"18 "," 29","right",1,1680,1680
"836",836,"Digit Symbol - Kopie",1,"female","Trial:2",26,"m","m",1409,"18 "," 29","right",1,1409,1409
"837",837,"Digit Symbol - Kopie",1,"female","Trial:2",27,"z","z",2132,"18 "," 29","wrong",1,2132,2132
"838",838,"Digit Symbol - Kopie",1,"female","Trial:2",28,"z","z",938,"18 "," 29","wrong",1,938,938
"839",839,"Digit Symbol - Kopie",1,"female","Trial:2",29,"z","z",1456,"18 "," 29","wrong",1,1456,1456
"840",840,"Digit Symbol - Kopie",1,"female","Trial:2",30,"m","m",1113,"18 "," 29","right",1,1113,1113
"841",841,"Digit Symbol - Kopie",1,"female","Trial:2",31,"z","z",1296,"18 "," 29","wrong",1,1296,1296
"842",842,"Digit Symbol - Kopie",1,"female","Trial:2",32,"m","m",1728,"18 "," 29","right",1,1728,1728
"843",843,"Digit Symbol - Kopie",1,"female","Trial:2",33,"z","z",1399,"18 "," 29","wrong",1,1399,1399
"844",844,"Digit Symbol - Kopie",1,"female","Trial:2",34,"z","z",1434,"18 "," 29","wrong",1,1434,1434
"845",845,"Digit Symbol - Kopie",1,"female","Trial:2",35,"z","z",1259,"18 "," 29","wrong",1,1259,1259
"846",846,"Digit Symbol - Kopie",1,"female","Trial:2",36,"m","z",1772,"18 "," 29","wrong",0,NA,NA
"847",847,"Digit Symbol - Kopie",1,"female","Trial:2",37,"m","m",1217,"18 "," 29","right",1,1217,1217
"848",848,"Digit Symbol - Kopie",1,"female","Trial:2",38,"m","m",939,"18 "," 29","right",1,939,939
"849",849,"Digit Symbol - Kopie",1,"female","Trial:2",39,"m","m",921,"18 "," 29","right",1,921,921
"850",850,"Digit Symbol - Kopie",1,"female","Trial:2",40,"z","z",1448,"18 "," 29","wrong",1,1448,1448
"851",851,"Digit Symbol - Kopie",1,"female","Trial:2",41,"m","m",1273,"18 "," 29","right",1,1273,1273
"852",852,"Digit Symbol - Kopie",1,"female","Trial:2",42,"z","z",1169,"18 "," 29","wrong",1,1169,1169
"853",853,"Digit Symbol - Kopie",1,"female","Trial:2",43,"m","m",1302,"18 "," 29","right",1,1302,1302
"854",854,"Digit Symbol - Kopie",1,"female","Trial:2",44,"m","m",1509,"18 "," 29","right",1,1509,1509
"855",855,"Digit Symbol - Kopie",1,"female","Trial:2",45,"z","z",1572,"18 "," 29","wrong",1,1572,1572
"856",856,"Digit Symbol - Kopie",1,"female","Trial:2",46,"z","z",2537,"18 "," 29","wrong",1,2537,NA
"857",857,"Digit Symbol - Kopie",1,"female","Trial:2",47,"z","z",2191,"18 "," 29","wrong",1,2191,2191
"858",858,"Digit Symbol - Kopie",1,"female","Trial:2",48,"m","z",1572,"18 "," 29","right",0,NA,NA
"859",859,"Digit Symbol - Kopie",1,"female","Trial:2",49,"m","m",1264,"18 "," 29","right",1,1264,1264
"860",860,"Digit Symbol - Kopie",1,"female","Trial:2",50,"m","m",1737,"18 "," 29","right",1,1737,1737
"861",861,"Digit Symbol - Kopie",1,"female","Trial:2",51,"z","z",2151,"18 "," 29","wrong",1,2151,2151
"862",862,"Digit Symbol - Kopie",1,"female","Trial:2",52,"m","m",1908,"18 "," 29","right",1,1908,1908
"863",863,"Digit Symbol - Kopie",1,"female","Trial:2",53,"z","z",2324,"18 "," 29","wrong",1,2324,2324
"864",864,"Digit Symbol - Kopie",1,"female","Trial:2",54,"z","z",1507,"18 "," 29","wrong",1,1507,1507
"865",865,"Digit Symbol - Kopie",1,"female","Trial:2",55,"z","z",2410,"18 "," 29","wrong",1,2410,2410
"866",866,"Digit Symbol - Kopie",1,"female","Trial:2",56,"z","z",2533,"18 "," 29","wrong",1,2533,NA
"867",867,"Digit Symbol - Kopie",1,"female","Trial:2",57,"z","z",1660,"18 "," 29","wrong",1,1660,1660
"868",868,"Digit Symbol - Kopie",1,"female","Trial:2",58,"m","m",1229,"18 "," 29","right",1,1229,1229
"869",869,"Digit Symbol - Kopie",1,"female","Trial:2",59,"m","m",1856,"18 "," 29","right",1,1856,1856
"870",870,"Digit Symbol - Kopie",1,"female","Trial:2",60,"z","z",1873,"18 "," 29","wrong",1,1873,1873
"871",871,"Digit Symbol - Kopie",1,"female","Trial:2",61,"m","m",1642,"18 "," 29","right",1,1642,1642
"872",872,"Digit Symbol - Kopie",1,"female","Trial:2",62,"m","m",1628,"18 "," 29","right",1,1628,1628
"873",873,"Digit Symbol - Kopie",1,"female","Trial:2",63,"m","m",1118,"18 "," 29","right",1,1118,1118
"874",874,"Digit Symbol - Kopie",1,"female","Trial:2",64,"m","m",1485,"18 "," 29","right",1,1485,1485
"875",875,"Digit Symbol - Kopie",1,"female","Trial:2",65,"m","m",1621,"18 "," 29","right",1,1621,1621
"876",876,"Digit Symbol - Kopie",1,"female","Trial:2",66,"m","m",1383,"18 "," 29","right",1,1383,1383
"877",877,"Digit Symbol - Kopie",1,"female","Trial:2",67,"z","z",1242,"18 "," 29","wrong",1,1242,1242
"878",878,"Digit Symbol - Kopie",1,"female","Trial:2",68,"z","z",1612,"18 "," 29","wrong",1,1612,1612
"879",879,"Digit Symbol - Kopie",1,"female","Trial:2",69,"z","z",1560,"18 "," 29","wrong",1,1560,1560
"880",880,"Digit Symbol - Kopie",1,"female","Trial:2",70,"z","z",1741,"18 "," 29","wrong",1,1741,1741
"881",881,"Digit Symbol - Kopie",1,"female","Trial:2",71,"z","z",1228,"18 "," 29","wrong",1,1228,1228
"882",882,"Digit Symbol - Kopie",1,"female","Trial:2",72,"z","z",1638,"18 "," 29","wrong",1,1638,1638
"883",883,"Digit Symbol - Kopie",1,"female","Trial:2",73,"z","z",1760,"18 "," 29","wrong",1,1760,1760
"884",884,"Digit Symbol - Kopie",1,"female","Trial:2",74,"m","m",2277,"18 "," 29","right",1,2277,2277
"885",885,"Digit Symbol - Kopie",1,"female","Trial:2",75,"z","z",2038,"18 "," 29","wrong",1,2038,2038
"886",886,"Digit Symbol - Kopie",1,"female","Trial:2",76,"m","m",1528,"18 "," 29","right",1,1528,1528
"887",887,"Digit Symbol - Kopie",1,"female","Trial:2",77,"m","m",1647,"18 "," 29","right",1,1647,1647
"888",888,"Digit Symbol - Kopie",1,"female","Trial:2",78,"m","m",1480,"18 "," 29","right",1,1480,1480
"889",889,"Digit Symbol - Kopie",1,"female","Trial:2",79,"z","z",1640,"18 "," 29","wrong",1,1640,1640
"890",890,"Digit Symbol - Kopie",1,"female","Trial:2",80,"m","m",1338,"18 "," 29","right",1,1338,1338
"891",891,"Digit Symbol - Kopie",1,"female","Trial:2",81,"z","z",2920,"18 "," 29","wrong",1,2920,NA
"892",892,"Digit Symbol - Kopie",1,"female","Trial:2",82,"z","z",1255,"18 "," 29","wrong",1,1255,1255
"893",893,"Digit Symbol - Kopie",1,"female","Trial:2",83,"m","m",1752,"18 "," 29","right",1,1752,1752
"894",894,"Digit Symbol - Kopie",1,"female","Trial:2",84,"m","m",1725,"18 "," 29","right",1,1725,1725
"895",895,"Digit Symbol - Kopie",1,"female","Trial:2",85,"z","z",1508,"18 "," 29","wrong",1,1508,1508
"896",896,"Digit Symbol - Kopie",1,"female","Trial:2",86,"m","m",2403,"18 "," 29","right",1,2403,2403
"897",897,"Digit Symbol - Kopie",1,"female","Trial:2",87,"m","m",1343,"18 "," 29","right",1,1343,1343
"898",898,"Digit Symbol - Kopie",1,"female","Trial:2",88,"z","z",2045,"18 "," 29","wrong",1,2045,2045
"899",899,"Digit Symbol - Kopie",1,"female","Trial:2",89,"m","z",1399,"18 "," 29","right",0,NA,NA
"900",900,"Digit Symbol - Kopie",1,"female","Trial:2",90,"z","z",2282,"18 "," 29","wrong",1,2282,2282
"911",911,"Digit Symbol - Kopie",1,"male","Trial:2",1,"m","m",1363,"19 "," 34","right",1,1363,1363
"912",912,"Digit Symbol - Kopie",1,"male","Trial:2",2,"z","z",1544,"19 "," 34","wrong",1,1544,1544
"913",913,"Digit Symbol - Kopie",1,"male","Trial:2",3,"m","m",1446,"19 "," 34","right",1,1446,1446
"914",914,"Digit Symbol - Kopie",1,"male","Trial:2",4,"z","z",1776,"19 "," 34","wrong",1,1776,1776
"915",915,"Digit Symbol - Kopie",1,"male","Trial:2",5,"m","m",1301,"19 "," 34","right",1,1301,1301
"916",916,"Digit Symbol - Kopie",1,"male","Trial:2",6,"m","z",1932,"19 "," 34","right",0,NA,NA
"917",917,"Digit Symbol - Kopie",1,"male","Trial:2",7,"z","z",1626,"19 "," 34","wrong",1,1626,1626
"918",918,"Digit Symbol - Kopie",1,"male","Trial:2",8,"m","m",1221,"19 "," 34","right",1,1221,1221
"919",919,"Digit Symbol - Kopie",1,"male","Trial:2",9,"m","m",1575,"19 "," 34","right",1,1575,1575
"920",920,"Digit Symbol - Kopie",1,"male","Trial:2",10,"m","z",1644,"19 "," 34","wrong",0,NA,NA
"921",921,"Digit Symbol - Kopie",1,"male","Trial:2",11,"m","z",1350,"19 "," 34","right",0,NA,NA
"922",922,"Digit Symbol - Kopie",1,"male","Trial:2",12,"m","m",1571,"19 "," 34","right",1,1571,1571
"923",923,"Digit Symbol - Kopie",1,"male","Trial:2",13,"m","m",1416,"19 "," 34","right",1,1416,1416
"924",924,"Digit Symbol - Kopie",1,"male","Trial:2",14,"z","z",1418,"19 "," 34","wrong",1,1418,1418
"925",925,"Digit Symbol - Kopie",1,"male","Trial:2",15,"z","z",1429,"19 "," 34","wrong",1,1429,1429
"926",926,"Digit Symbol - Kopie",1,"male","Trial:2",16,"m","m",1535,"19 "," 34","right",1,1535,1535
"927",927,"Digit Symbol - Kopie",1,"male","Trial:2",17,"m","m",1445,"19 "," 34","right",1,1445,1445
"928",928,"Digit Symbol - Kopie",1,"male","Trial:2",18,"m","m",1047,"19 "," 34","right",1,1047,1047
"929",929,"Digit Symbol - Kopie",1,"male","Trial:2",19,"z","z",1560,"19 "," 34","wrong",1,1560,1560
"930",930,"Digit Symbol - Kopie",1,"male","Trial:2",20,"z","m",1070,"19 "," 34","wrong",0,NA,NA
"931",931,"Digit Symbol - Kopie",1,"male","Trial:2",21,"z","z",1542,"19 "," 34","wrong",1,1542,1542
"932",932,"Digit Symbol - Kopie",1,"male","Trial:2",22,"z","m",1340,"19 "," 34","wrong",0,NA,NA
"933",933,"Digit Symbol - Kopie",1,"male","Trial:2",23,"m","m",1458,"19 "," 34","right",1,1458,1458
"934",934,"Digit Symbol - Kopie",1,"male","Trial:2",24,"m","m",1603,"19 "," 34","right",1,1603,1603
"935",935,"Digit Symbol - Kopie",1,"male","Trial:2",25,"m","m",1662,"19 "," 34","right",1,1662,1662
"936",936,"Digit Symbol - Kopie",1,"male","Trial:2",26,"z","z",1296,"19 "," 34","wrong",1,1296,1296
"937",937,"Digit Symbol - Kopie",1,"male","Trial:2",27,"z","z",1224,"19 "," 34","wrong",1,1224,1224
"938",938,"Digit Symbol - Kopie",1,"male","Trial:2",28,"m","m",1418,"19 "," 34","right",1,1418,1418
"939",939,"Digit Symbol - Kopie",1,"male","Trial:2",29,"m","m",949,"19 "," 34","right",1,949,949
"940",940,"Digit Symbol - Kopie",1,"male","Trial:2",30,"z","z",1345,"19 "," 34","wrong",1,1345,1345
"941",941,"Digit Symbol - Kopie",1,"male","Trial:2",31,"z","z",1263,"19 "," 34","wrong",1,1263,1263
"942",942,"Digit Symbol - Kopie",1,"male","Trial:2",32,"m","m",1233,"19 "," 34","right",1,1233,1233
"943",943,"Digit Symbol - Kopie",1,"male","Trial:2",33,"m","m",1730,"19 "," 34","right",1,1730,1730
"944",944,"Digit Symbol - Kopie",1,"male","Trial:2",34,"z","z",1608,"19 "," 34","wrong",1,1608,1608
"945",945,"Digit Symbol - Kopie",1,"male","Trial:2",35,"z","m",1451,"19 "," 34","wrong",0,NA,NA
"946",946,"Digit Symbol - Kopie",1,"male","Trial:2",36,"m","m",1356,"19 "," 34","right",1,1356,1356
"947",947,"Digit Symbol - Kopie",1,"male","Trial:2",37,"z","z",1362,"19 "," 34","wrong",1,1362,1362
"948",948,"Digit Symbol - Kopie",1,"male","Trial:2",38,"z","z",1623,"19 "," 34","wrong",1,1623,1623
"949",949,"Digit Symbol - Kopie",1,"male","Trial:2",39,"z","z",1554,"19 "," 34","wrong",1,1554,1554
"950",950,"Digit Symbol - Kopie",1,"male","Trial:2",40,"m","m",1239,"19 "," 34","right",1,1239,1239
"951",951,"Digit Symbol - Kopie",1,"male","Trial:2",41,"z","z",1913,"19 "," 34","wrong",1,1913,1913
"952",952,"Digit Symbol - Kopie",1,"male","Trial:2",42,"m","m",880,"19 "," 34","right",1,880,880
"953",953,"Digit Symbol - Kopie",1,"male","Trial:2",43,"z","z",1312,"19 "," 34","wrong",1,1312,1312
"954",954,"Digit Symbol - Kopie",1,"male","Trial:2",44,"m","m",1063,"19 "," 34","right",1,1063,1063
"955",955,"Digit Symbol - Kopie",1,"male","Trial:2",45,"m","z",1424,"19 "," 34","right",0,NA,NA
"956",956,"Digit Symbol - Kopie",1,"male","Trial:2",46,"z","z",1379,"19 "," 34","wrong",1,1379,1379
"957",957,"Digit Symbol - Kopie",1,"male","Trial:2",47,"m","z",1471,"19 "," 34","right",0,NA,NA
"958",958,"Digit Symbol - Kopie",1,"male","Trial:2",48,"m","m",1032,"19 "," 34","right",1,1032,1032
"959",959,"Digit Symbol - Kopie",1,"male","Trial:2",49,"z","z",1258,"19 "," 34","wrong",1,1258,1258
"960",960,"Digit Symbol - Kopie",1,"male","Trial:2",50,"z","z",1323,"19 "," 34","wrong",1,1323,1323
"961",961,"Digit Symbol - Kopie",1,"male","Trial:2",51,"m","m",1338,"19 "," 34","right",1,1338,1338
"962",962,"Digit Symbol - Kopie",1,"male","Trial:2",52,"z","m",1287,"19 "," 34","wrong",0,NA,NA
"963",963,"Digit Symbol - Kopie",1,"male","Trial:2",53,"z","z",1303,"19 "," 34","wrong",1,1303,1303
"964",964,"Digit Symbol - Kopie",1,"male","Trial:2",54,"m","m",919,"19 "," 34","right",1,919,919
"965",965,"Digit Symbol - Kopie",1,"male","Trial:2",55,"m","m",1365,"19 "," 34","right",1,1365,1365
"966",966,"Digit Symbol - Kopie",1,"male","Trial:2",56,"m","m",938,"19 "," 34","right",1,938,938
"967",967,"Digit Symbol - Kopie",1,"male","Trial:2",57,"m","m",1119,"19 "," 34","right",1,1119,1119
"968",968,"Digit Symbol - Kopie",1,"male","Trial:2",58,"z","z",1054,"19 "," 34","wrong",1,1054,1054
"969",969,"Digit Symbol - Kopie",1,"male","Trial:2",59,"m","m",831,"19 "," 34","right",1,831,831
"970",970,"Digit Symbol - Kopie",1,"male","Trial:2",60,"z","z",1105,"19 "," 34","wrong",1,1105,1105
"971",971,"Digit Symbol - Kopie",1,"male","Trial:2",61,"z","z",1128,"19 "," 34","wrong",1,1128,1128
"972",972,"Digit Symbol - Kopie",1,"male","Trial:2",62,"z","z",998,"19 "," 34","wrong",1,998,998
"973",973,"Digit Symbol - Kopie",1,"male","Trial:2",63,"z","z",1057,"19 "," 34","wrong",1,1057,1057
"974",974,"Digit Symbol - Kopie",1,"male","Trial:2",64,"z","z",995,"19 "," 34","wrong",1,995,995
"975",975,"Digit Symbol - Kopie",1,"male","Trial:2",65,"z","z",1102,"19 "," 34","wrong",1,1102,1102
"976",976,"Digit Symbol - Kopie",1,"male","Trial:2",66,"m","m",1190,"19 "," 34","right",1,1190,1190
"977",977,"Digit Symbol - Kopie",1,"male","Trial:2",67,"z","z",841,"19 "," 34","wrong",1,841,841
"978",978,"Digit Symbol - Kopie",1,"male","Trial:2",68,"m","z",1339,"19 "," 34","right",0,NA,NA
"979",979,"Digit Symbol - Kopie",1,"male","Trial:2",69,"m","m",1713,"19 "," 34","right",1,1713,1713
"980",980,"Digit Symbol - Kopie",1,"male","Trial:2",70,"m","m",952,"19 "," 34","right",1,952,952
"981",981,"Digit Symbol - Kopie",1,"male","Trial:2",71,"z","z",1262,"19 "," 34","wrong",1,1262,1262
"982",982,"Digit Symbol - Kopie",1,"male","Trial:2",72,"z","m",991,"19 "," 34","wrong",0,NA,NA
"983",983,"Digit Symbol - Kopie",1,"male","Trial:2",73,"m","m",994,"19 "," 34","right",1,994,994
"984",984,"Digit Symbol - Kopie",1,"male","Trial:2",74,"m","m",1662,"19 "," 34","right",1,1662,1662
"985",985,"Digit Symbol - Kopie",1,"male","Trial:2",75,"z","z",1024,"19 "," 34","wrong",1,1024,1024
"986",986,"Digit Symbol - Kopie",1,"male","Trial:2",76,"m","m",1378,"19 "," 34","right",1,1378,1378
"987",987,"Digit Symbol - Kopie",1,"male","Trial:2",77,"m","z",1335,"19 "," 34","right",0,NA,NA
"988",988,"Digit Symbol - Kopie",1,"male","Trial:2",78,"z","z",1429,"19 "," 34","wrong",1,1429,1429
"989",989,"Digit Symbol - Kopie",1,"male","Trial:2",79,"z","z",1167,"19 "," 34","wrong",1,1167,1167
"990",990,"Digit Symbol - Kopie",1,"male","Trial:2",80,"z","z",1540,"19 "," 34","wrong",1,1540,1540
"991",991,"Digit Symbol - Kopie",1,"male","Trial:2",81,"z","z",1018,"19 "," 34","wrong",1,1018,1018
"992",992,"Digit Symbol - Kopie",1,"male","Trial:2",82,"z","z",1388,"19 "," 34","wrong",1,1388,1388
"993",993,"Digit Symbol - Kopie",1,"male","Trial:2",83,"m","m",1016,"19 "," 34","right",1,1016,1016
"994",994,"Digit Symbol - Kopie",1,"male","Trial:2",84,"z","z",866,"19 "," 34","wrong",1,866,866
"995",995,"Digit Symbol - Kopie",1,"male","Trial:2",85,"m","m",1003,"19 "," 34","right",1,1003,1003
"996",996,"Digit Symbol - Kopie",1,"male","Trial:2",86,"m","z",1254,"19 "," 34","right",0,NA,NA
"997",997,"Digit Symbol - Kopie",1,"male","Trial:2",87,"z","z",1567,"19 "," 34","wrong",1,1567,1567
"998",998,"Digit Symbol - Kopie",1,"male","Trial:2",88,"z","z",1188,"19 "," 34","wrong",1,1188,1188
"999",999,"Digit Symbol - Kopie",1,"male","Trial:2",89,"m","m",1120,"19 "," 34","right",1,1120,1120
"1000",1000,"Digit Symbol - Kopie",1,"male","Trial:2",90,"m","m",1070,"19 "," 34","right",1,1070,1070
"1011",1011,"Digit Symbol - Kopie",1,"male","Trial:2",1,"m","m",1165,"20 "," 31","right",1,1165,1165
"1012",1012,"Digit Symbol - Kopie",1,"male","Trial:2",2,"m","m",1489,"20 "," 31","right",1,1489,1489
"1013",1013,"Digit Symbol - Kopie",1,"male","Trial:2",3,"z","z",1561,"20 "," 31","wrong",1,1561,1561
"1014",1014,"Digit Symbol - Kopie",1,"male","Trial:2",4,"z","z",1014,"20 "," 31","wrong",1,1014,1014
"1015",1015,"Digit Symbol - Kopie",1,"male","Trial:2",5,"m","m",1201,"20 "," 31","right",1,1201,1201
"1016",1016,"Digit Symbol - Kopie",1,"male","Trial:2",6,"m","m",1364,"20 "," 31","right",1,1364,1364
"1017",1017,"Digit Symbol - Kopie",1,"male","Trial:2",7,"m","m",1201,"20 "," 31","right",1,1201,1201
"1018",1018,"Digit Symbol - Kopie",1,"male","Trial:2",8,"z","z",1324,"20 "," 31","wrong",1,1324,1324
"1019",1019,"Digit Symbol - Kopie",1,"male","Trial:2",9,"m","m",818,"20 "," 31","right",1,818,818
"1020",1020,"Digit Symbol - Kopie",1,"male","Trial:2",10,"m","m",1357,"20 "," 31","right",1,1357,1357
"1021",1021,"Digit Symbol - Kopie",1,"male","Trial:2",11,"z","z",914,"20 "," 31","wrong",1,914,914
"1022",1022,"Digit Symbol - Kopie",1,"male","Trial:2",12,"m","z",1425,"20 "," 31","wrong",0,NA,NA
"1023",1023,"Digit Symbol - Kopie",1,"male","Trial:2",13,"z","z",1627,"20 "," 31","wrong",1,1627,1627
"1024",1024,"Digit Symbol - Kopie",1,"male","Trial:2",14,"m","m",902,"20 "," 31","right",1,902,902
"1025",1025,"Digit Symbol - Kopie",1,"male","Trial:2",15,"m","m",1461,"20 "," 31","right",1,1461,1461
"1026",1026,"Digit Symbol - Kopie",1,"male","Trial:2",16,"m","m",1302,"20 "," 31","right",1,1302,1302
"1027",1027,"Digit Symbol - Kopie",1,"male","Trial:2",17,"m","m",997,"20 "," 31","right",1,997,997
"1028",1028,"Digit Symbol - Kopie",1,"male","Trial:2",18,"m","m",841,"20 "," 31","right",1,841,841
"1029",1029,"Digit Symbol - Kopie",1,"male","Trial:2",19,"z","z",1146,"20 "," 31","wrong",1,1146,1146
"1030",1030,"Digit Symbol - Kopie",1,"male","Trial:2",20,"z","z",824,"20 "," 31","wrong",1,824,824
"1031",1031,"Digit Symbol - Kopie",1,"male","Trial:2",21,"m","m",867,"20 "," 31","right",1,867,867
"1032",1032,"Digit Symbol - Kopie",1,"male","Trial:2",22,"m","m",1251,"20 "," 31","right",1,1251,1251
"1033",1033,"Digit Symbol - Kopie",1,"male","Trial:2",23,"m","m",892,"20 "," 31","right",1,892,892
"1034",1034,"Digit Symbol - Kopie",1,"male","Trial:2",24,"z","z",1020,"20 "," 31","wrong",1,1020,1020
"1035",1035,"Digit Symbol - Kopie",1,"male","Trial:2",25,"z","z",1494,"20 "," 31","wrong",1,1494,1494
"1036",1036,"Digit Symbol - Kopie",1,"male","Trial:2",26,"m","m",1654,"20 "," 31","right",1,1654,1654
"1037",1037,"Digit Symbol - Kopie",1,"male","Trial:2",27,"m","m",1256,"20 "," 31","right",1,1256,1256
"1038",1038,"Digit Symbol - Kopie",1,"male","Trial:2",28,"z","z",1537,"20 "," 31","wrong",1,1537,1537
"1039",1039,"Digit Symbol - Kopie",1,"male","Trial:2",29,"m","m",1239,"20 "," 31","right",1,1239,1239
"1040",1040,"Digit Symbol - Kopie",1,"male","Trial:2",30,"m","m",1233,"20 "," 31","right",1,1233,1233
"1041",1041,"Digit Symbol - Kopie",1,"male","Trial:2",31,"m","m",1147,"20 "," 31","right",1,1147,1147
"1042",1042,"Digit Symbol - Kopie",1,"male","Trial:2",32,"m","m",904,"20 "," 31","right",1,904,904
"1043",1043,"Digit Symbol - Kopie",1,"male","Trial:2",33,"m","m",896,"20 "," 31","right",1,896,896
"1044",1044,"Digit Symbol - Kopie",1,"male","Trial:2",34,"m","m",879,"20 "," 31","right",1,879,879
"1045",1045,"Digit Symbol - Kopie",1,"male","Trial:2",35,"z","z",808,"20 "," 31","wrong",1,808,808
"1046",1046,"Digit Symbol - Kopie",1,"male","Trial:2",36,"z","z",1034,"20 "," 31","wrong",1,1034,1034
"1047",1047,"Digit Symbol - Kopie",1,"male","Trial:2",37,"z","z",1172,"20 "," 31","wrong",1,1172,1172
"1048",1048,"Digit Symbol - Kopie",1,"male","Trial:2",38,"m","m",968,"20 "," 31","right",1,968,968
"1049",1049,"Digit Symbol - Kopie",1,"male","Trial:2",39,"m","m",949,"20 "," 31","right",1,949,949
"1050",1050,"Digit Symbol - Kopie",1,"male","Trial:2",40,"m","m",1258,"20 "," 31","right",1,1258,1258
"1051",1051,"Digit Symbol - Kopie",1,"male","Trial:2",41,"m","m",803,"20 "," 31","right",1,803,803
"1052",1052,"Digit Symbol - Kopie",1,"male","Trial:2",42,"z","z",1022,"20 "," 31","wrong",1,1022,1022
"1053",1053,"Digit Symbol - Kopie",1,"male","Trial:2",43,"z","z",1008,"20 "," 31","wrong",1,1008,1008
"1054",1054,"Digit Symbol - Kopie",1,"male","Trial:2",44,"z","z",1044,"20 "," 31","wrong",1,1044,1044
"1055",1055,"Digit Symbol - Kopie",1,"male","Trial:2",45,"z","z",909,"20 "," 31","wrong",1,909,909
"1056",1056,"Digit Symbol - Kopie",1,"male","Trial:2",46,"z","z",853,"20 "," 31","wrong",1,853,853
"1057",1057,"Digit Symbol - Kopie",1,"male","Trial:2",47,"m","m",830,"20 "," 31","right",1,830,830
"1058",1058,"Digit Symbol - Kopie",1,"male","Trial:2",48,"m","m",959,"20 "," 31","right",1,959,959
"1059",1059,"Digit Symbol - Kopie",1,"male","Trial:2",49,"m","m",740,"20 "," 31","right",1,740,740
"1060",1060,"Digit Symbol - Kopie",1,"male","Trial:2",50,"m","m",762,"20 "," 31","right",1,762,762
"1061",1061,"Digit Symbol - Kopie",1,"male","Trial:2",51,"m","m",1143,"20 "," 31","right",1,1143,1143
"1062",1062,"Digit Symbol - Kopie",1,"male","Trial:2",52,"m","m",1309,"20 "," 31","right",1,1309,1309
"1063",1063,"Digit Symbol - Kopie",1,"male","Trial:2",53,"m","m",836,"20 "," 31","right",1,836,836
"1064",1064,"Digit Symbol - Kopie",1,"male","Trial:2",54,"z","z",878,"20 "," 31","wrong",1,878,878
"1065",1065,"Digit Symbol - Kopie",1,"male","Trial:2",55,"z","m",790,"20 "," 31","wrong",0,NA,NA
"1066",1066,"Digit Symbol - Kopie",1,"male","Trial:2",56,"z","z",1978,"20 "," 31","wrong",1,1978,1978
"1067",1067,"Digit Symbol - Kopie",1,"male","Trial:2",57,"m","m",959,"20 "," 31","right",1,959,959
"1068",1068,"Digit Symbol - Kopie",1,"male","Trial:2",58,"z","z",860,"20 "," 31","wrong",1,860,860
"1069",1069,"Digit Symbol - Kopie",1,"male","Trial:2",59,"m","m",829,"20 "," 31","right",1,829,829
"1070",1070,"Digit Symbol - Kopie",1,"male","Trial:2",60,"z","z",1016,"20 "," 31","wrong",1,1016,1016
"1071",1071,"Digit Symbol - Kopie",1,"male","Trial:2",61,"m","m",858,"20 "," 31","right",1,858,858
"1072",1072,"Digit Symbol - Kopie",1,"male","Trial:2",62,"z","z",723,"20 "," 31","wrong",1,723,723
"1073",1073,"Digit Symbol - Kopie",1,"male","Trial:2",63,"z","z",938,"20 "," 31","wrong",1,938,938
"1074",1074,"Digit Symbol - Kopie",1,"male","Trial:2",64,"z","z",1399,"20 "," 31","wrong",1,1399,1399
"1075",1075,"Digit Symbol - Kopie",1,"male","Trial:2",65,"z","z",819,"20 "," 31","wrong",1,819,819
"1076",1076,"Digit Symbol - Kopie",1,"male","Trial:2",66,"z","z",1197,"20 "," 31","wrong",1,1197,1197
"1077",1077,"Digit Symbol - Kopie",1,"male","Trial:2",67,"z","z",1464,"20 "," 31","wrong",1,1464,1464
"1078",1078,"Digit Symbol - Kopie",1,"male","Trial:2",68,"m","m",681,"20 "," 31","right",1,681,681
"1079",1079,"Digit Symbol - Kopie",1,"male","Trial:2",69,"z","z",872,"20 "," 31","wrong",1,872,872
"1080",1080,"Digit Symbol - Kopie",1,"male","Trial:2",70,"z","z",897,"20 "," 31","wrong",1,897,897
"1081",1081,"Digit Symbol - Kopie",1,"male","Trial:2",71,"z","z",1240,"20 "," 31","wrong",1,1240,1240
"1082",1082,"Digit Symbol - Kopie",1,"male","Trial:2",72,"m","m",1130,"20 "," 31","right",1,1130,1130
"1083",1083,"Digit Symbol - Kopie",1,"male","Trial:2",73,"z","z",824,"20 "," 31","wrong",1,824,824
"1084",1084,"Digit Symbol - Kopie",1,"male","Trial:2",74,"z","z",1059,"20 "," 31","wrong",1,1059,1059
"1085",1085,"Digit Symbol - Kopie",1,"male","Trial:2",75,"m","m",868,"20 "," 31","right",1,868,868
"1086",1086,"Digit Symbol - Kopie",1,"male","Trial:2",76,"z","z",788,"20 "," 31","wrong",1,788,788
"1087",1087,"Digit Symbol - Kopie",1,"male","Trial:2",77,"m","m",1312,"20 "," 31","right",1,1312,1312
"1088",1088,"Digit Symbol - Kopie",1,"male","Trial:2",78,"m","m",983,"20 "," 31","right",1,983,983
"1089",1089,"Digit Symbol - Kopie",1,"male","Trial:2",79,"z","z",723,"20 "," 31","wrong",1,723,723
"1090",1090,"Digit Symbol - Kopie",1,"male","Trial:2",80,"m","m",882,"20 "," 31","right",1,882,882
"1091",1091,"Digit Symbol - Kopie",1,"male","Trial:2",81,"z","z",1209,"20 "," 31","wrong",1,1209,1209
"1092",1092,"Digit Symbol - Kopie",1,"male","Trial:2",82,"z","z",1172,"20 "," 31","wrong",1,1172,1172
"1093",1093,"Digit Symbol - Kopie",1,"male","Trial:2",83,"z","z",865,"20 "," 31","wrong",1,865,865
"1094",1094,"Digit Symbol - Kopie",1,"male","Trial:2",84,"z","z",1009,"20 "," 31","wrong",1,1009,1009
"1095",1095,"Digit Symbol - Kopie",1,"male","Trial:2",85,"z","z",917,"20 "," 31","wrong",1,917,917
"1096",1096,"Digit Symbol - Kopie",1,"male","Trial:2",86,"m","m",1139,"20 "," 31","right",1,1139,1139
"1097",1097,"Digit Symbol - Kopie",1,"male","Trial:2",87,"z","z",857,"20 "," 31","wrong",1,857,857
"1098",1098,"Digit Symbol - Kopie",1,"male","Trial:2",88,"z","z",1170,"20 "," 31","wrong",1,1170,1170
